Date: 15-08-25
Time: 13:47:22 PM

Exp. Conditions:
Cyclic voltammetry
Start potential (V) = .0000
First vertex potential (V) = .5000
Second vertex potential (V) = -.3000
Step potential (V) = .00500
Scan rate (V/s) = .30005
Equilibration time (s) = 
Number of Data Points =  320 

 Potential	  Scan 1   
 0.002139	-1.002197E-05
 0.009683	-2.140808E-06
 0.014676	2.374878E-06
 0.019672	6.591797E-06
 0.024661	1.060486E-05
 0.029654	1.448669E-05
 0.034647	1.827393E-05
 0.039636	2.200623E-05
 0.044626	2.570190E-05
 0.049622	2.938843E-05
 0.054626	3.306580E-05
 0.059631	3.674316E-05
 0.064636	4.043579E-05
 0.069611	4.414063E-05
 0.074615	4.786682E-05
 0.079590	5.157471E-05
 0.084595	5.532837E-05
 0.089569	5.911255E-05
 0.094574	6.292725E-05
 0.099579	6.671143E-05
 0.104553	7.055664E-05
 0.109528	7.437134E-05
 0.114532	7.821655E-05
 0.119507	8.209229E-05
 0.124512	8.593750E-05
 0.129517	8.978271E-05
 0.134491	9.365845E-05
 0.139496	9.753418E-05
 0.144470	1.013794E-04
 0.149475	1.052246E-04
 0.154449	1.090698E-04
 0.159454	1.128845E-04
 0.164429	1.166992E-04
 0.169434	1.204834E-04
 0.174408	1.242371E-04
 0.179413	1.279602E-04
 0.184387	1.316833E-04
 0.189392	1.353149E-04
 0.194397	1.389465E-04
 0.199371	1.424866E-04
 0.204346	1.459961E-04
 0.209351	1.494141E-04
 0.214325	1.528015E-04
 0.219330	1.560974E-04
 0.224304	1.592712E-04
 0.229309	1.623840E-04
 0.234283	1.653442E-04
 0.239288	1.682129E-04
 0.244263	1.709290E-04
 0.249268	1.734924E-04
 0.254272	1.759033E-04
 0.259247	1.781006E-04
 0.264252	1.801147E-04
 0.269226	1.818542E-04
 0.274231	1.833496E-04
 0.279205	1.845398E-04
 0.284210	1.853943E-04
 0.289185	1.859131E-04
 0.294189	1.860352E-04
 0.299164	1.857300E-04
 0.304169	1.849670E-04
 0.309143	1.837158E-04
 0.314148	1.819763E-04
 0.319122	1.797485E-04
 0.324127	1.770630E-04
 0.329102	1.739502E-04
 0.334106	1.705627E-04
 0.339081	1.669312E-04
 0.344086	1.632385E-04
 0.349060	1.595154E-04
 0.354065	1.558533E-04
 0.359039	1.523743E-04
 0.364044	1.490479E-04
 0.369019	1.459351E-04
 0.374023	1.430054E-04
 0.378998	1.402588E-04
 0.384003	1.376953E-04
 0.388977	1.352844E-04
 0.393982	1.330261E-04
 0.398956	1.309204E-04
 0.403961	1.289063E-04
 0.408936	1.270142E-04
 0.413940	1.252136E-04
 0.418915	1.235046E-04
 0.423889	1.218567E-04
 0.428894	1.202698E-04
 0.433868	1.187744E-04
 0.438873	1.173096E-04
 0.443878	1.159058E-04
 0.448853	1.145325E-04
 0.453827	1.131897E-04
 0.458832	1.118774E-04
 0.463806	1.105652E-04
 0.468811	1.093140E-04
 0.473816	1.080933E-04
 0.478790	1.068726E-04
 0.483765	1.056519E-04
 0.488770	1.044312E-04
 0.493744	1.032410E-04
 0.498749	1.020813E-04
 0.500488	9.954834E-05
 0.494965	9.109497E-05
 0.489960	8.535767E-05
 0.484955	8.099365E-05
 0.479950	7.745361E-05
 0.474945	7.449341E-05
 0.469940	7.192993E-05
 0.464935	6.967163E-05
 0.459930	6.765747E-05
 0.454926	6.585693E-05
 0.449921	6.417847E-05
 0.444916	6.262207E-05
 0.439911	6.118774E-05
 0.434906	5.984497E-05
 0.429901	5.856323E-05
 0.424896	5.734253E-05
 0.419891	5.621338E-05
 0.414886	5.511475E-05
 0.409882	5.404663E-05
 0.404877	5.303955E-05
 0.399872	5.206299E-05
 0.394867	5.114746E-05
 0.389862	5.020142E-05
 0.384857	4.936829E-05
 0.379852	4.850464E-05
 0.374847	4.767151E-05
 0.369843	4.685364E-05
 0.364838	4.605713E-05
 0.359833	4.527893E-05
 0.354828	4.451294E-05
 0.349823	4.376526E-05
 0.344818	4.302979E-05
 0.339813	4.230042E-05
 0.334808	4.158630E-05
 0.329803	4.088135E-05
 0.324799	4.018250E-05
 0.319794	3.948669E-05
 0.314789	3.880005E-05
 0.309784	3.811951E-05
 0.304779	3.743896E-05
 0.299774	3.675842E-05
 0.294769	3.607788E-05
 0.289764	3.539124E-05
 0.284760	3.471069E-05
 0.279785	3.401794E-05
 0.274780	3.331604E-05
 0.269775	3.260803E-05
 0.264771	3.188477E-05
 0.259766	3.114624E-05
 0.254761	3.038940E-05
 0.249756	2.960815E-05
 0.244751	2.880554E-05
 0.239746	2.796631E-05
 0.234741	2.709351E-05
 0.229736	2.618408E-05
 0.224731	2.522888E-05
 0.219727	2.422791E-05
 0.214722	2.317200E-05
 0.209717	2.204590E-05
 0.204712	2.086182E-05
 0.199738	1.960144E-05
 0.194733	1.826172E-05
 0.189728	1.683655E-05
 0.184723	1.532898E-05
 0.179718	1.372681E-05
 0.174713	1.203003E-05
 0.169708	1.022644E-05
 0.164703	8.328247E-06
 0.159698	6.323242E-06
 0.154694	4.230042E-06
 0.149689	2.016602E-06
 0.144684	-2.911377E-07
 0.139679	-2.706299E-06
 0.134674	-5.221558E-06
 0.129700	-7.827759E-06
 0.124695	-1.053162E-05
 0.119659	-1.332092E-05
 0.114685	-1.619873E-05
 0.109680	-1.915894E-05
 0.104675	-2.219238E-05
 0.099670	-2.529907E-05
 0.094666	-2.847900E-05
 0.089661	-3.171692E-05
 0.084656	-3.502197E-05
 0.079681	-3.837585E-05
 0.074677	-4.178772E-05
 0.069672	-4.524841E-05
 0.064667	-4.874573E-05
 0.059631	-5.233765E-05
 0.054626	-5.590820E-05
 0.049652	-5.950928E-05
 0.044629	-6.317139E-05
 0.039624	-6.683350E-05
 0.034622	-7.049561E-05
 0.029617	-7.418823E-05
 0.024609	-7.791138E-05
 0.019608	-8.163452E-05
 0.014603	-8.535767E-05
 0.009595	-8.908081E-05
 0.004599	-9.280396E-05
 -0.000406	-9.652710E-05
 -0.005405	-1.002197E-04
 -0.010416	-1.039124E-04
 -0.015417	-1.075745E-04
 -0.020422	-1.112366E-04
 -0.025427	-1.148376E-04
 -0.030429	-1.184082E-04
 -0.035434	-1.219482E-04
 -0.040436	-1.254272E-04
 -0.045444	-1.288452E-04
 -0.050385	-1.322021E-04
 -0.055389	-1.354980E-04
 -0.060394	-1.387024E-04
 -0.065399	-1.418152E-04
 -0.070404	-1.448059E-04
 -0.075409	-1.477051E-04
 -0.080414	-1.504517E-04
 -0.085419	-1.530457E-04
 -0.090424	-1.554871E-04
 -0.095398	-1.577148E-04
 -0.100433	-1.597595E-04
 -0.105408	-1.615601E-04
 -0.110413	-1.630554E-04
 -0.115417	-1.642456E-04
 -0.120422	-1.651001E-04
 -0.125427	-1.655884E-04
 -0.130432	-1.656189E-04
 -0.135437	-1.651917E-04
 -0.140442	-1.642761E-04
 -0.145447	-1.628113E-04
 -0.150421	-1.607971E-04
 -0.155426	-1.582642E-04
 -0.160431	-1.552429E-04
 -0.165436	-1.517639E-04
 -0.170441	-1.480103E-04
 -0.175446	-1.440430E-04
 -0.180450	-1.400146E-04
 -0.185455	-1.360474E-04
 -0.190460	-1.321716E-04
 -0.195465	-1.285095E-04
 -0.200470	-1.250610E-04
 -0.205475	-1.218262E-04
 -0.210480	-1.188354E-04
 -0.215454	-1.160583E-04
 -0.220459	-1.134949E-04
 -0.225464	-1.110840E-04
 -0.230469	-1.088867E-04
 -0.235474	-1.068115E-04
 -0.240479	-1.048889E-04
 -0.245483	-1.030884E-04
 -0.250488	-1.014099E-04
 -0.255493	-9.982300E-05
 -0.260498	-9.832764E-05
 -0.265472	-9.692383E-05
 -0.270508	-9.561157E-05
 -0.275482	-9.436035E-05
 -0.280487	-9.317017E-05
 -0.285492	-9.204102E-05
 -0.290497	-9.097290E-05
 -0.295502	-8.996582E-05
 -0.297668	-8.840942E-05
 -0.292694	-7.745361E-05
 -0.287689	-6.933594E-05
 -0.282715	-6.326294E-05
 -0.277710	-5.859375E-05
 -0.272705	-5.499268E-05
 -0.267700	-5.212402E-05
 -0.262726	-4.980469E-05
 -0.257721	-4.784546E-05
 -0.252716	-4.624634E-05
 -0.247742	-4.487610E-05
 -0.242737	-4.368591E-05
 -0.237762	-4.263000E-05
 -0.232758	-4.168396E-05
 -0.227753	-4.082642E-05
 -0.222778	-4.003601E-05
 -0.217773	-3.930054E-05
 -0.212799	-3.861389E-05
 -0.207794	-3.796387E-05
 -0.202820	-3.735352E-05
 -0.197815	-3.676453E-05
 -0.192810	-3.620605E-05
 -0.187836	-3.566589E-05
 -0.182831	-3.514709E-05
 -0.177856	-3.464050E-05
 -0.172852	-3.415222E-05
 -0.167847	-3.367615E-05
 -0.162872	-3.321228E-05
 -0.157867	-3.275146E-05
 -0.152893	-3.230591E-05
 -0.147888	-3.185425E-05
 -0.142914	-3.140869E-05
 -0.137909	-3.096619E-05
 -0.132935	-3.051453E-05
 -0.127930	-3.006287E-05
 -0.122955	-2.960205E-05
 -0.117950	-2.912598E-05
 -0.112946	-2.863464E-05
 -0.107971	-2.812195E-05
 -0.102966	-2.758789E-05
 -0.097992	-2.702637E-05
 -0.092987	-2.642212E-05
 -0.088013	-2.578430E-05
 -0.083038	-2.509460E-05
 -0.078033	-2.435303E-05
 -0.073029	-2.354126E-05
 -0.068054	-2.265930E-05
 -0.063049	-2.170410E-05
 -0.058044	-2.066040E-05
 -0.053070	-1.951904E-05
 -0.048151	-1.828003E-05
 -0.043158	-1.692810E-05
 -0.038165	-1.546631E-05
 -0.033173	-1.388245E-05
 -0.028186	-1.218262E-05
 -0.023193	-1.035767E-05
 -0.018195	-8.407593E-06
 -0.013205	-6.335449E-06
 -0.008215	-4.150696E-06
 -0.003214	-1.823425E-06

 Potential	  Scan 2   
 0.001767	5.776978E-07
 0.006778	3.117371E-06
 0.011752	5.743408E-06
 0.016745	8.486938E-06
 0.021738	1.132202E-05
 0.026730	1.424561E-05
 0.031714	1.725769E-05
 0.036716	2.035217E-05
 0.041705	2.352295E-05
 0.046692	2.675781E-05
 0.051727	3.006592E-05
 0.056702	3.343201E-05
 0.061676	3.685913E-05
 0.066681	4.032898E-05
 0.071686	4.385986E-05
 0.076660	4.743042E-05
 0.081665	5.102539E-05
 0.086639	5.465698E-05
 0.091644	5.834961E-05
 0.096619	6.204224E-05
 0.101624	6.579590E-05
 0.106598	6.954956E-05
 0.111603	7.333374E-05
 0.116577	7.711792E-05
 0.121582	8.090210E-05
 0.126556	8.471680E-05
 0.131561	8.853149E-05
 0.136536	9.234619E-05
 0.141541	9.613037E-05
 0.146515	9.994507E-05
 0.151520	1.037292E-04
 0.156494	1.075134E-04
 0.161499	1.112671E-04
 0.166473	1.150208E-04
 0.171478	1.187134E-04
 0.176453	1.224060E-04
 0.181427	1.260376E-04
 0.186432	1.296692E-04
 0.191437	1.332092E-04
 0.196411	1.367188E-04
 0.201416	1.401367E-04
 0.206390	1.434937E-04
 0.211395	1.467896E-04
 0.216370	1.499939E-04
 0.221375	1.531067E-04
 0.226349	1.560974E-04
 0.231354	1.589661E-04
 0.236328	1.617126E-04
 0.241333	1.643066E-04
 0.246307	1.667175E-04
 0.251312	1.689453E-04
 0.256287	1.709900E-04
 0.261292	1.727600E-04
 0.266266	1.742859E-04
 0.271271	1.755371E-04
 0.276245	1.764526E-04
 0.281219	1.770325E-04
 0.286224	1.772156E-04
 0.291199	1.769409E-04
 0.296204	1.762390E-04
 0.301208	1.750488E-04
 0.306183	1.733398E-04
 0.311188	1.711426E-04
 0.316162	1.684875E-04
 0.321167	1.653748E-04
 0.326141	1.619568E-04
 0.331146	1.582642E-04
 0.336121	1.544495E-04
 0.341125	1.506348E-04
 0.346100	1.468811E-04
 0.351105	1.432495E-04
 0.356079	1.398010E-04
 0.361084	1.365356E-04
 0.366058	1.334839E-04
 0.371063	1.306152E-04
 0.376038	1.279297E-04
 0.381042	1.253967E-04
 0.386017	1.230469E-04
 0.391022	1.207886E-04
 0.395996	1.187134E-04
 0.400970	1.166992E-04
 0.405975	1.148376E-04
 0.410950	1.130371E-04
 0.415955	1.113281E-04
 0.420929	1.096802E-04
 0.425934	1.080933E-04
 0.430908	1.065979E-04
 0.435913	1.051331E-04
 0.440887	1.037292E-04
 0.445892	1.023560E-04
 0.450867	1.010437E-04
 0.455872	9.976196E-05
 0.460846	9.851074E-05
 0.465851	9.729004E-05
 0.470825	9.606934E-05
 0.475830	9.490967E-05
 0.480804	9.378052E-05
 0.485809	9.265137E-05
 0.490784	9.155273E-05
 0.495789	9.045410E-05
 0.501099	8.938599E-05
 0.498688	8.413696E-05
 0.493652	7.723999E-05
 0.488647	7.241821E-05
 0.483643	6.869507E-05
 0.478638	6.570435E-05
 0.473633	6.314087E-05
 0.468628	6.094360E-05
 0.463623	5.899048E-05
 0.458618	5.725098E-05
 0.453613	5.566406E-05
 0.448608	5.419922E-05
 0.443604	5.285645E-05
 0.438599	5.157471E-05
 0.433594	5.038452E-05
 0.428589	4.927673E-05
 0.423584	4.820557E-05
 0.418579	4.718323E-05
 0.413574	4.620667E-05
 0.408569	4.526978E-05
 0.403564	4.436951E-05
 0.398560	4.349976E-05
 0.393555	4.265442E-05
 0.388550	4.183960E-05
 0.383545	4.104004E-05
 0.378540	4.027100E-05
 0.373535	3.951416E-05
 0.368530	3.877869E-05
 0.363525	3.806152E-05
 0.358521	3.735657E-05
 0.353516	3.666992E-05
 0.348511	3.598938E-05
 0.343506	3.532104E-05
 0.338501	3.466187E-05
 0.333527	3.401489E-05
 0.328491	3.337097E-05
 0.323486	3.273621E-05
 0.318512	3.210754E-05
 0.313477	3.147888E-05
 0.308472	3.085632E-05
 0.303467	3.023376E-05
 0.298462	2.961426E-05
 0.293457	2.899475E-05
 0.288483	2.836914E-05
 0.283478	2.774353E-05
 0.278473	2.711182E-05
 0.273468	2.647095E-05
 0.268463	2.581787E-05
 0.263458	2.515869E-05
 0.258453	2.448425E-05
 0.253448	2.378845E-05
 0.248444	2.307434E-05
 0.243439	2.233887E-05
 0.238434	2.156677E-05
 0.233429	2.077332E-05
 0.228424	1.993713E-05
 0.223419	1.906128E-05
 0.218414	1.813965E-05
 0.213409	1.716614E-05
 0.208405	1.613464E-05
 0.203400	1.503601E-05
 0.198395	1.387634E-05
 0.193420	1.263428E-05
 0.188416	1.131592E-05
 0.183380	9.909058E-06
 0.178375	8.413696E-06
 0.173370	6.823730E-06
 0.168396	5.139160E-06
 0.163391	3.355103E-06
 0.158386	1.462708E-06
 0.153381	-5.346680E-07
 0.148376	-2.639160E-06
 0.143372	-4.849243E-06
 0.138367	-7.162476E-06
 0.133362	-9.573364E-06
 0.128357	-1.209106E-05
 0.123383	-1.469727E-05
 0.118347	-1.739502E-05
 0.113373	-2.019043E-05
 0.108368	-2.307129E-05
 0.103363	-2.603149E-05
 0.098358	-2.906494E-05
 0.093353	-3.217773E-05
 0.088348	-3.535461E-05
 0.083344	-3.859558E-05
 0.078339	-4.189758E-05
 0.073334	-4.526062E-05
 0.068359	-4.866638E-05
 0.063354	-5.215454E-05
 0.058319	-5.566406E-05
 0.053345	-5.920410E-05
 0.048318	-6.280518E-05
 0.043314	-6.640625E-05
 0.038309	-7.003784E-05
 0.033307	-7.366943E-05
 0.028302	-7.736206E-05
 0.023297	-8.105469E-05
 0.018292	-8.474731E-05
 0.013287	-8.847046E-05
 0.008295	-9.216309E-05
 0.003281	-9.588623E-05
 -0.001718	-9.960938E-05
 -0.006726	-1.033020E-04
 -0.011728	-1.069946E-04
 -0.016733	-1.106567E-04
 -0.021735	-1.142883E-04
 -0.026740	-1.179199E-04
 -0.031744	-1.214905E-04
 -0.036746	-1.250305E-04
 -0.041748	-1.285400E-04
 -0.046750	-1.319885E-04
 -0.051697	-1.353760E-04
 -0.056702	-1.387024E-04
 -0.061707	-1.419373E-04
 -0.066711	-1.450806E-04
 -0.071716	-1.481323E-04
 -0.076721	-1.510620E-04
 -0.081726	-1.539001E-04
 -0.086731	-1.565552E-04
 -0.091736	-1.590576E-04
 -0.096710	-1.614075E-04
 -0.101715	-1.635437E-04
 -0.106720	-1.654663E-04
 -0.111725	-1.670837E-04
 -0.116730	-1.684570E-04
 -0.121735	-1.694946E-04
 -0.126740	-1.701660E-04
 -0.131744	-1.704407E-04
 -0.136749	-1.702881E-04
 -0.141754	-1.696167E-04
 -0.146759	-1.684570E-04
 -0.151733	-1.667480E-04
 -0.156738	-1.645203E-04
 -0.161743	-1.617432E-04
 -0.166748	-1.585083E-04
 -0.171753	-1.549377E-04
 -0.176758	-1.510620E-04
 -0.181763	-1.470642E-04
 -0.186768	-1.430054E-04
 -0.191772	-1.390381E-04
 -0.196777	-1.352234E-04
 -0.201782	-1.315918E-04
 -0.206787	-1.281738E-04
 -0.211761	-1.250000E-04
 -0.216766	-1.220093E-04
 -0.221771	-1.192627E-04
 -0.226776	-1.166992E-04
 -0.231781	-1.143188E-04
 -0.236786	-1.120911E-04
 -0.241791	-1.100464E-04
 -0.246796	-1.081238E-04
 -0.251801	-1.063232E-04
 -0.256805	-1.046143E-04
 -0.261780	-1.030579E-04
 -0.266785	-1.015625E-04
 -0.271790	-1.001892E-04
 -0.276794	-9.887695E-05
 -0.281799	-9.762573E-05
 -0.286804	-9.646606E-05
 -0.291809	-9.533691E-05
 -0.296814	-9.429932E-05
 -0.296112	-8.959961E-05
 -0.291138	-7.943726E-05
 -0.286133	-7.196045E-05
 -0.281128	-6.637573E-05
 -0.276154	-6.207275E-05
 -0.271149	-5.868530E-05
 -0.266144	-5.599976E-05
 -0.261169	-5.380249E-05
 -0.256195	-5.200195E-05
 -0.251190	-5.044556E-05
 -0.246185	-4.909668E-05
 -0.241211	-4.793091E-05
 -0.236206	-4.689026E-05
 -0.231201	-4.595032E-05
 -0.226227	-4.508972E-05
 -0.221222	-4.429321E-05
 -0.216248	-4.354858E-05
 -0.211243	-4.284973E-05
 -0.206238	-4.218445E-05
 -0.201263	-4.154968E-05
 -0.196259	-4.094238E-05
 -0.191284	-4.036255E-05
 -0.186279	-3.979797E-05
 -0.181274	-3.925781E-05
 -0.176300	-3.873291E-05
 -0.171295	-3.821411E-05
 -0.166290	-3.771057E-05
 -0.161316	-3.722229E-05
 -0.156311	-3.673706E-05
 -0.151337	-3.625488E-05
 -0.146362	-3.577881E-05
 -0.141357	-3.529663E-05
 -0.136353	-3.482056E-05
 -0.131378	-3.433838E-05
 -0.126373	-3.384705E-05
 -0.121368	-3.333740E-05
 -0.116394	-3.281860E-05
 -0.111389	-3.228760E-05
 -0.106415	-3.171997E-05
 -0.101440	-3.112793E-05
 -0.096436	-3.050537E-05
 -0.091461	-2.984009E-05
 -0.086456	-2.912598E-05
 -0.081451	-2.835693E-05
 -0.076477	-2.752991E-05
 -0.071472	-2.662964E-05
 -0.066498	-2.565308E-05
 -0.061493	-2.459717E-05
 -0.056519	-2.344055E-05
 -0.051514	-2.218628E-05
 -0.046600	-2.082214E-05
 -0.041605	-1.934814E-05
 -0.036615	-1.775818E-05
 -0.031625	-1.604919E-05
 -0.026630	-1.421814E-05
 -0.021640	-1.226807E-05
 -0.016644	-1.019592E-05
 -0.011652	-8.001709E-06
 -0.006662	-5.697632E-06
 -0.001672	-3.276062E-06

 Potential	  Scan 3   
 0.003317	-7.452393E-07
 0.008316	1.907959E-06
 0.013300	4.628601E-06
 0.018292	7.455444E-06
 0.023285	1.038513E-05
 0.028278	1.339417E-05
 0.033267	1.648560E-05
 0.038257	1.964722E-05
 0.043250	2.288513E-05
 0.048239	2.618713E-05
 0.053253	2.955627E-05
 0.058258	3.297729E-05
 0.063232	3.645630E-05
 0.068237	3.997498E-05
 0.073212	4.354553E-05
 0.078217	4.715271E-05
 0.083191	5.078125E-05
 0.088196	5.444336E-05
 0.093170	5.816650E-05
 0.098175	6.188965E-05
 0.103149	6.564331E-05
 0.108154	6.942749E-05
 0.113129	7.324219E-05
 0.118134	7.702637E-05
 0.123108	8.084106E-05
 0.128113	8.465576E-05
 0.133087	8.847046E-05
 0.138092	9.228516E-05
 0.143066	9.609985E-05
 0.148071	9.988403E-05
 0.153046	1.036682E-04
 0.158051	1.074524E-04
 0.163025	1.111755E-04
 0.168030	1.148987E-04
 0.173004	1.185913E-04
 0.178009	1.222534E-04
 0.182983	1.258545E-04
 0.187988	1.294250E-04
 0.192993	1.329346E-04
 0.197968	1.363831E-04
 0.202942	1.397705E-04
 0.207947	1.430969E-04
 0.212921	1.463013E-04
 0.217926	1.494141E-04
 0.222900	1.524658E-04
 0.227905	1.553650E-04
 0.232880	1.581421E-04
 0.237885	1.607666E-04
 0.242859	1.632080E-04
 0.247864	1.654968E-04
 0.252869	1.675720E-04
 0.257843	1.694336E-04
 0.262817	1.710205E-04
 0.267822	1.723022E-04
 0.272797	1.733093E-04
 0.277802	1.739502E-04
 0.282776	1.742249E-04
 0.287781	1.740417E-04
 0.292755	1.734619E-04
 0.297760	1.723633E-04
 0.302734	1.707764E-04
 0.307739	1.686707E-04
 0.312714	1.661072E-04
 0.317719	1.630859E-04
 0.322693	1.596985E-04
 0.327698	1.560669E-04
 0.332672	1.522522E-04
 0.337677	1.484070E-04
 0.342651	1.446228E-04
 0.347656	1.409607E-04
 0.352631	1.374512E-04
 0.357635	1.341248E-04
 0.362610	1.310120E-04
 0.367615	1.281128E-04
 0.372589	1.253662E-04
 0.377594	1.227722E-04
 0.382568	1.203918E-04
 0.387573	1.181030E-04
 0.392548	1.159668E-04
 0.397552	1.139526E-04
 0.402527	1.120300E-04
 0.407501	1.101990E-04
 0.412506	1.084595E-04
 0.417480	1.067810E-04
 0.422485	1.051941E-04
 0.427490	1.036682E-04
 0.432465	1.021729E-04
 0.437469	1.007690E-04
 0.442444	9.936523E-05
 0.447449	9.802246E-05
 0.452423	9.671021E-05
 0.457428	9.545898E-05
 0.462402	9.420776E-05
 0.467407	9.301758E-05
 0.472382	9.182739E-05
 0.477356	9.066772E-05
 0.482361	8.953857E-05
 0.487335	8.843994E-05
 0.492340	8.734131E-05
 0.497314	8.627319E-05
 0.499878	8.465576E-05
 0.494446	7.629395E-05
 0.489441	7.086182E-05
 0.484436	6.683350E-05
 0.479431	6.362915E-05
 0.474426	6.097412E-05
 0.469391	5.868530E-05
 0.464386	5.670166E-05
 0.459412	5.493164E-05
 0.454407	5.331421E-05
 0.449402	5.184937E-05
 0.444397	5.050659E-05
 0.439392	4.925842E-05
 0.434357	4.806824E-05
 0.429352	4.694824E-05
 0.424347	4.588318E-05
 0.419373	4.487305E-05
 0.414337	4.390869E-05
 0.409332	4.297791E-05
 0.404358	4.208679E-05
 0.399353	4.122620E-05
 0.394318	4.039307E-05
 0.389343	3.959045E-05
 0.384338	3.880615E-05
 0.379333	3.804626E-05
 0.374329	3.730469E-05
 0.369324	3.657837E-05
 0.364319	3.587036E-05
 0.359314	3.518066E-05
 0.354309	3.449707E-05
 0.349304	3.382874E-05
 0.344299	3.317261E-05
 0.339294	3.252869E-05
 0.334290	3.189087E-05
 0.329285	3.125610E-05
 0.324280	3.063354E-05
 0.319275	3.001099E-05
 0.314270	2.940063E-05
 0.309265	2.879028E-05
 0.304260	2.817993E-05
 0.299255	2.756958E-05
 0.294250	2.695618E-05
 0.289246	2.634888E-05
 0.284241	2.573853E-05
 0.279236	2.511902E-05
 0.274231	2.449646E-05
 0.269226	2.385864E-05
 0.264252	2.321472E-05
 0.259216	2.254944E-05
 0.254242	2.188110E-05
 0.249237	2.118835E-05
 0.244202	2.046814E-05
 0.239227	1.972656E-05
 0.234222	1.895447E-05
 0.229218	1.814270E-05
 0.224213	1.729736E-05
 0.219208	1.640930E-05
 0.214203	1.546631E-05
 0.209198	1.447449E-05
 0.204193	1.342163E-05
 0.199188	1.229858E-05
 0.194183	1.110840E-05
 0.189178	9.835815E-06
 0.184174	8.480835E-06
 0.179169	7.040405E-06
 0.174164	5.502319E-06
 0.169189	3.881531E-06
 0.164154	2.148438E-06
 0.159149	3.082275E-07
 0.154175	-1.629333E-06
 0.149170	-3.673096E-06
 0.144165	-5.825806E-06
 0.139160	-8.078003E-06
 0.134155	-1.043701E-05
 0.129150	-1.289368E-05
 0.124146	-1.545105E-05
 0.119141	-1.810608E-05
 0.114166	-2.084961E-05
 0.109161	-2.367859E-05
 0.104156	-2.659302E-05
 0.099152	-2.958679E-05
 0.094147	-3.265991E-05
 0.089142	-3.580627E-05
 0.084137	-3.900757E-05
 0.079132	-4.228210E-05
 0.074127	-4.560547E-05
 0.069153	-4.898987E-05
 0.064148	-5.245972E-05
 0.059113	-5.593872E-05
 0.054138	-5.944824E-05
 0.049109	-6.301880E-05
 0.044107	-6.661987E-05
 0.039102	-7.022095E-05
 0.034097	-7.385254E-05
 0.029099	-7.751465E-05
 0.024094	-8.120728E-05
 0.019089	-8.489990E-05
 0.014087	-8.859253E-05
 0.009085	-9.231567E-05
 0.004080	-9.600830E-05
 -0.000922	-9.973145E-05
 -0.005923	-1.033936E-04
 -0.010931	-1.071167E-04
 -0.015933	-1.107788E-04
 -0.020941	-1.144409E-04
 -0.025940	-1.180725E-04
 -0.030945	-1.216736E-04
 -0.035947	-1.252441E-04
 -0.040952	-1.287537E-04
 -0.045953	-1.322021E-04
 -0.050903	-1.356201E-04
 -0.055908	-1.389771E-04
 -0.060913	-1.422424E-04
 -0.065918	-1.454163E-04
 -0.070923	-1.485291E-04
 -0.075928	-1.515198E-04
 -0.080902	-1.543884E-04
 -0.085938	-1.571045E-04
 -0.090912	-1.596985E-04
 -0.095917	-1.621094E-04
 -0.100922	-1.643372E-04
 -0.105927	-1.663513E-04
 -0.110931	-1.681213E-04
 -0.115936	-1.696167E-04
 -0.120941	-1.707764E-04
 -0.125946	-1.716309E-04
 -0.130951	-1.720886E-04
 -0.135925	-1.721191E-04
 -0.140930	-1.716614E-04
 -0.145935	-1.707458E-04
 -0.150940	-1.692810E-04
 -0.155945	-1.672974E-04
 -0.160950	-1.647644E-04
 -0.165955	-1.617432E-04
 -0.170959	-1.582947E-04
 -0.175934	-1.545105E-04
 -0.180939	-1.505432E-04
 -0.185944	-1.465149E-04
 -0.190948	-1.424866E-04
 -0.195953	-1.386108E-04
 -0.200958	-1.348877E-04
 -0.205963	-1.313477E-04
 -0.210968	-1.280518E-04
 -0.215973	-1.249695E-04
 -0.220978	-1.221008E-04
 -0.225983	-1.194458E-04
 -0.230957	-1.169739E-04
 -0.235962	-1.146851E-04
 -0.240967	-1.125183E-04
 -0.245972	-1.105347E-04
 -0.250977	-1.087036E-04
 -0.255981	-1.069336E-04
 -0.260986	-1.053162E-04
 -0.265991	-1.037903E-04
 -0.270996	-1.023560E-04
 -0.275970	-1.009827E-04
 -0.280975	-9.973145E-05
 -0.285980	-9.851074E-05
 -0.290985	-9.738159E-05
 -0.295990	-9.631348E-05
 -0.296692	-9.313965E-05
 -0.291687	-8.248901E-05
 -0.286713	-7.470703E-05
 -0.281708	-6.887817E-05
 -0.276733	-6.442261E-05
 -0.271729	-6.094360E-05
 -0.266724	-5.816650E-05
 -0.261749	-5.590820E-05
 -0.256744	-5.404663E-05
 -0.251740	-5.245972E-05
 -0.246765	-5.111694E-05
 -0.241760	-4.992676E-05
 -0.236755	-4.883118E-05
 -0.231781	-4.786987E-05
 -0.226776	-4.698792E-05
 -0.221802	-4.617615E-05
 -0.216797	-4.541626E-05
 -0.211823	-4.470520E-05
 -0.206818	-4.402466E-05
 -0.201843	-4.338074E-05
 -0.196838	-4.276428E-05
 -0.191864	-4.217224E-05
 -0.186859	-4.159241E-05
 -0.181854	-4.104004E-05
 -0.176880	-4.050293E-05
 -0.171875	-3.997498E-05
 -0.166870	-3.946228E-05
 -0.161896	-3.895874E-05
 -0.156891	-3.846436E-05
 -0.151917	-3.796692E-05
 -0.146912	-3.748169E-05
 -0.141907	-3.699036E-05
 -0.136932	-3.650513E-05
 -0.131958	-3.600159E-05
 -0.126953	-3.550110E-05
 -0.121948	-3.498840E-05
 -0.116974	-3.445435E-05
 -0.111969	-3.390503E-05
 -0.106995	-3.333130E-05
 -0.101990	-3.272400E-05
 -0.097015	-3.208313E-05
 -0.092010	-3.139954E-05
 -0.087036	-3.067017E-05
 -0.082031	-2.988892E-05
 -0.077057	-2.903442E-05
 -0.072052	-2.812195E-05
 -0.067078	-2.712708E-05
 -0.062073	-2.603760E-05
 -0.057068	-2.486572E-05
 -0.052094	-2.358704E-05
 -0.047168	-2.220154E-05
 -0.042175	-2.070618E-05
 -0.037186	-1.909180E-05
 -0.032196	-1.736145E-05
 -0.027200	-1.550598E-05
 -0.022205	-1.353149E-05
 -0.017215	-1.143799E-05
 -0.012219	-9.225464E-06
 -0.007230	-6.896973E-06
 -0.002237	-4.450073E-06

 Potential	  Scan 4   
 0.002756	-1.911011E-06
 0.007761	7.626343E-07
 0.012735	3.493652E-06
 0.017731	6.344604E-06
 0.022723	9.280396E-06
 0.027710	1.230774E-05
 0.032703	1.541138E-05
 0.037692	1.858826E-05
 0.042691	2.183838E-05
 0.047681	2.515259E-05
 0.052704	2.852478E-05
 0.057678	3.195496E-05
 0.062683	3.544312E-05
 0.067688	3.897095E-05
 0.072662	4.254761E-05
 0.077667	4.616394E-05
 0.082642	4.980469E-05
 0.087616	5.349731E-05
 0.092621	5.718994E-05
 0.097626	6.094360E-05
 0.102600	6.469727E-05
 0.107605	6.848145E-05
 0.112579	7.226563E-05
 0.117554	7.608032E-05
 0.122559	7.989502E-05
 0.127563	8.370972E-05
 0.132538	8.752441E-05
 0.137543	9.133911E-05
 0.142517	9.512329E-05
 0.147522	9.893799E-05
 0.152496	1.027222E-04
 0.157501	1.065063E-04
 0.162476	1.102295E-04
 0.167480	1.139526E-04
 0.172455	1.176453E-04
 0.177460	1.213074E-04
 0.182434	1.249084E-04
 0.187439	1.284485E-04
 0.192413	1.319885E-04
 0.197418	1.354065E-04
 0.202393	1.387939E-04
 0.207397	1.420898E-04
 0.212372	1.453247E-04
 0.217377	1.484375E-04
 0.222351	1.514282E-04
 0.227356	1.543274E-04
 0.232330	1.571045E-04
 0.237335	1.596985E-04
 0.242310	1.621399E-04
 0.247314	1.643982E-04
 0.252289	1.664429E-04
 0.257294	1.682739E-04
 0.262268	1.698303E-04
 0.267273	1.711121E-04
 0.272247	1.720581E-04
 0.277252	1.726685E-04
 0.282227	1.729126E-04
 0.287231	1.726990E-04
 0.292206	1.720276E-04
 0.297211	1.708984E-04
 0.302185	1.692810E-04
 0.307190	1.671143E-04
 0.312164	1.644897E-04
 0.317169	1.614380E-04
 0.322144	1.579895E-04
 0.327148	1.543274E-04
 0.332123	1.505127E-04
 0.337128	1.466675E-04
 0.342133	1.428833E-04
 0.347107	1.392212E-04
 0.352081	1.357117E-04
 0.357086	1.324158E-04
 0.362061	1.293030E-04
 0.367065	1.263733E-04
 0.372040	1.236572E-04
 0.377045	1.210938E-04
 0.382019	1.186829E-04
 0.387024	1.164246E-04
 0.391998	1.142883E-04
 0.397003	1.122437E-04
 0.401978	1.103210E-04
 0.406952	1.085205E-04
 0.411957	1.067505E-04
 0.416962	1.051025E-04
 0.421936	1.034851E-04
 0.426941	1.019592E-04
 0.431915	1.004639E-04
 0.436920	9.906006E-05
 0.441895	9.765625E-05
 0.446899	9.631348E-05
 0.451874	9.500122E-05
 0.456879	9.375000E-05
 0.461853	9.249878E-05
 0.466858	9.130859E-05
 0.471832	9.011841E-05
 0.476837	8.895874E-05
 0.481812	8.782959E-05
 0.486816	8.673096E-05
 0.491791	8.563232E-05
 0.496796	8.456421E-05
 0.498016	8.218384E-05
 0.493011	7.412720E-05
 0.488007	6.890869E-05
 0.483002	6.500244E-05
 0.477997	6.188965E-05
 0.472992	5.929565E-05
 0.467987	5.706787E-05
 0.462982	5.511475E-05
 0.457977	5.340576E-05
 0.452972	5.181885E-05
 0.447968	5.038452E-05
 0.442963	4.907227E-05
 0.437958	4.783020E-05
 0.432953	4.666138E-05
 0.427948	4.555969E-05
 0.422943	4.451599E-05
 0.417938	4.352112E-05
 0.412933	4.256592E-05
 0.407928	4.165649E-05
 0.402924	4.077759E-05
 0.397919	3.993225E-05
 0.392914	3.911133E-05
 0.387909	3.831787E-05
 0.382904	3.754578E-05
 0.377899	3.679810E-05
 0.372894	3.606262E-05
 0.367889	3.534851E-05
 0.362885	3.464661E-05
 0.357880	3.396301E-05
 0.352875	3.329163E-05
 0.347870	3.263245E-05
 0.342865	3.197937E-05
 0.337860	3.134155E-05
 0.332886	3.070984E-05
 0.327850	3.008118E-05
 0.322845	2.946472E-05
 0.317871	2.885132E-05
 0.312866	2.824097E-05
 0.307861	2.763672E-05
 0.302856	2.703247E-05
 0.297852	2.642517E-05
 0.292847	2.581787E-05
 0.287842	2.521362E-05
 0.282837	2.460632E-05
 0.277832	2.398376E-05
 0.272827	2.336121E-05
 0.267822	2.272949E-05
 0.262817	2.208252E-05
 0.257813	2.142944E-05
 0.252808	2.075195E-05
 0.247803	2.005920E-05
 0.242798	1.934204E-05
 0.237793	1.859741E-05
 0.232788	1.782227E-05
 0.227783	1.701660E-05
 0.222809	1.616516E-05
 0.217804	1.527100E-05
 0.212799	1.432800E-05
 0.207794	1.333008E-05
 0.202789	1.227112E-05
 0.197784	1.114197E-05
 0.192780	9.942627E-06
 0.187775	8.663940E-06
 0.182770	7.305908E-06
 0.177765	5.853271E-06
 0.172760	4.314270E-06
 0.167755	2.669678E-06
 0.162750	9.268188E-07
 0.157745	-9.158325E-07
 0.152771	-2.865601E-06
 0.147766	-4.919434E-06
 0.142761	-7.028198E-06
 0.137756	-9.292603E-06
 0.132751	-1.166687E-05
 0.127747	-1.413574E-05
 0.122742	-1.670837E-05
 0.117737	-1.936951E-05
 0.112732	-2.212524E-05
 0.107727	-2.496948E-05
 0.102722	-2.789612E-05
 0.097748	-3.089905E-05
 0.092743	-3.400879E-05
 0.087738	-3.715820E-05
 0.082733	-4.036865E-05
 0.077728	-4.364624E-05
 0.072723	-4.697876E-05
 0.067719	-5.041504E-05
 0.062714	-5.383301E-05
 0.057709	-5.731201E-05
 0.052704	-6.085205E-05
 0.047702	-6.439209E-05
 0.042697	-6.799316E-05
 0.037695	-7.162476E-05
 0.032693	-7.525635E-05
 0.027689	-7.891846E-05
 0.022687	-8.261108E-05
 0.017682	-8.630371E-05
 0.012677	-8.999634E-05
 0.007687	-9.371948E-05
 0.002670	-9.741211E-05
 -0.002332	-1.011353E-04
 -0.007333	-1.048279E-04
 -0.012338	-1.085205E-04
 -0.017346	-1.121826E-04
 -0.022345	-1.158447E-04
 -0.027353	-1.194458E-04
 -0.032352	-1.230469E-04
 -0.037357	-1.265869E-04
 -0.042361	-1.300964E-04
 -0.047366	-1.335449E-04
 -0.052307	-1.369629E-04
 -0.057312	-1.402893E-04
 -0.062317	-1.435547E-04
 -0.067322	-1.467285E-04
 -0.072327	-1.498108E-04
 -0.077332	-1.527710E-04
 -0.082336	-1.556396E-04
 -0.087311	-1.583557E-04
 -0.092346	-1.609192E-04
 -0.097321	-1.632996E-04
 -0.102325	-1.654968E-04
 -0.107330	-1.674500E-04
 -0.112335	-1.691895E-04
 -0.117340	-1.706543E-04
 -0.122345	-1.717834E-04
 -0.127350	-1.725769E-04
 -0.132355	-1.729736E-04
 -0.137329	-1.729431E-04
 -0.142334	-1.724243E-04
 -0.147339	-1.714478E-04
 -0.152344	-1.699219E-04
 -0.157349	-1.678467E-04
 -0.162354	-1.652222E-04
 -0.167358	-1.621399E-04
 -0.172363	-1.586609E-04
 -0.177368	-1.548462E-04
 -0.182343	-1.508789E-04
 -0.187347	-1.468201E-04
 -0.192383	-1.428223E-04
 -0.197357	-1.389465E-04
 -0.202362	-1.352234E-04
 -0.207367	-1.317444E-04
 -0.212372	-1.284485E-04
 -0.217377	-1.253967E-04
 -0.222382	-1.225586E-04
 -0.227386	-1.199036E-04
 -0.232391	-1.174622E-04
 -0.237366	-1.152039E-04
 -0.242371	-1.130676E-04
 -0.247375	-1.110840E-04
 -0.252380	-1.092529E-04
 -0.257385	-1.075439E-04
 -0.262390	-1.059265E-04
 -0.267395	-1.044006E-04
 -0.272400	-1.029663E-04
 -0.277405	-1.016235E-04
 -0.282379	-1.003723E-04
 -0.287415	-9.915161E-05
 -0.292389	-9.802246E-05
 -0.297394	-9.695435E-05
 -0.295929	-9.136963E-05
 -0.290924	-8.145142E-05
 -0.285950	-7.418823E-05
 -0.280945	-6.869507E-05
 -0.275940	-6.448364E-05
 -0.270966	-6.115723E-05
 -0.265961	-5.853271E-05
 -0.260956	-5.636597E-05
 -0.255981	-5.456543E-05
 -0.250977	-5.303955E-05
 -0.246002	-5.172729E-05
 -0.240997	-5.056763E-05
 -0.235992	-4.949036E-05
 -0.231018	-4.855042E-05
 -0.226013	-4.768372E-05
 -0.221008	-4.688110E-05
 -0.216034	-4.612732E-05
 -0.211029	-4.541931E-05
 -0.206055	-4.474792E-05
 -0.201050	-4.411011E-05
 -0.196075	-4.349365E-05
 -0.191071	-4.290161E-05
 -0.186066	-4.232788E-05
 -0.181091	-4.177551E-05
 -0.176086	-4.123535E-05
 -0.171082	-4.071045E-05
 -0.166107	-4.019775E-05
 -0.161102	-3.969421E-05
 -0.156128	-3.919373E-05
 -0.151123	-3.869934E-05
 -0.146149	-3.820496E-05
 -0.141144	-3.771667E-05
 -0.136169	-3.722229E-05
 -0.131165	-3.671875E-05
 -0.126160	-3.620911E-05
 -0.121185	-3.568726E-05
 -0.116211	-3.514404E-05
 -0.111206	-3.458557E-05
 -0.106201	-3.399658E-05
 -0.101227	-3.337708E-05
 -0.096222	-3.272705E-05
 -0.091248	-3.202515E-05
 -0.086243	-3.127747E-05
 -0.081268	-3.047485E-05
 -0.076263	-2.960510E-05
 -0.071289	-2.865906E-05
 -0.066284	-2.763672E-05
 -0.061310	-2.652588E-05
 -0.056305	-2.532043E-05
 -0.051331	-2.400818E-05
 -0.046393	-2.259216E-05
 -0.041397	-2.105713E-05
 -0.036411	-1.940918E-05
 -0.031412	-1.763916E-05
 -0.026422	-1.574402E-05
 -0.021429	-1.373596E-05
 -0.016446	-1.160583E-05
 -0.011444	-9.356689E-06
 -0.006454	-6.994629E-06
 -0.001462	-4.523621E-06

 Potential	  Scan 5   
 0.003528	-1.942444E-06
 0.008527	7.601929E-07
 0.013510	3.521118E-06
 0.018503	6.396484E-06
 0.023499	9.362793E-06
 0.028485	1.241150E-05
 0.033475	1.553650E-05
 0.038470	1.873779E-05
 0.043460	2.200928E-05
 0.048450	2.533264E-05
 0.053467	2.872925E-05
 0.058472	3.217773E-05
 0.063446	3.567200E-05
 0.068451	3.921814E-05
 0.073425	4.280701E-05
 0.078430	4.643250E-05
 0.083405	5.004883E-05
 0.088409	5.377197E-05
 0.093384	5.749512E-05
 0.098389	6.124878E-05
 0.103363	6.500244E-05
 0.108368	6.878662E-05
 0.113342	7.260132E-05
 0.118347	7.638550E-05
 0.123322	8.020020E-05
 0.128326	8.404541E-05
 0.133331	8.786011E-05
 0.138306	9.167480E-05
 0.143311	9.545898E-05
 0.148285	9.927368E-05
 0.153290	1.030579E-04
 0.158264	1.068115E-04
 0.163269	1.105347E-04
 0.168243	1.142578E-04
 0.173218	1.179504E-04
 0.178223	1.215820E-04
 0.183197	1.251831E-04
 0.188202	1.287231E-04
 0.193207	1.322021E-04
 0.198181	1.356201E-04
 0.203186	1.390076E-04
 0.208160	1.422729E-04
 0.213135	1.454773E-04
 0.218140	1.485596E-04
 0.223145	1.515503E-04
 0.228119	1.543884E-04
 0.233124	1.571045E-04
 0.238098	1.596680E-04
 0.243073	1.620789E-04
 0.248077	1.642761E-04
 0.253082	1.662598E-04
 0.258057	1.680298E-04
 0.263062	1.695251E-04
 0.268036	1.707153E-04
 0.273041	1.715698E-04
 0.278015	1.720886E-04
 0.283020	1.721802E-04
 0.287994	1.718750E-04
 0.292969	1.710815E-04
 0.297974	1.697998E-04
 0.302948	1.680298E-04
 0.307953	1.657410E-04
 0.312958	1.629944E-04
 0.317932	1.598206E-04
 0.322937	1.563110E-04
 0.327911	1.525879E-04
 0.332916	1.487427E-04
 0.337891	1.448975E-04
 0.342896	1.411133E-04
 0.347870	1.374817E-04
 0.352875	1.340332E-04
 0.357849	1.307678E-04
 0.362823	1.276855E-04
 0.367828	1.248169E-04
 0.372833	1.221313E-04
 0.377808	1.195984E-04
 0.382813	1.172180E-04
 0.387787	1.149902E-04
 0.392792	1.128845E-04
 0.397766	1.108704E-04
 0.402771	1.089783E-04
 0.407745	1.071472E-04
 0.412750	1.054382E-04
 0.417725	1.037903E-04
 0.422729	1.021729E-04
 0.427704	1.006775E-04
 0.432709	9.918213E-05
 0.437683	9.777832E-05
 0.442688	9.637451E-05
 0.447662	9.506226E-05
 0.452667	9.375000E-05
 0.457642	9.249878E-05
 0.462646	9.124756E-05
 0.467621	9.005737E-05
 0.472595	8.886719E-05
 0.477600	8.770752E-05
 0.482605	8.657837E-05
 0.487579	8.547974E-05
 0.492554	8.441162E-05
 0.497559	8.334351E-05
 0.498810	8.096313E-05
 0.493774	7.296753E-05
 0.488770	6.777954E-05
 0.483765	6.393433E-05
 0.478760	6.085205E-05
 0.473785	5.828857E-05
 0.468750	5.609131E-05
 0.463745	5.419922E-05
 0.458740	5.245972E-05
 0.453735	5.093384E-05
 0.448730	4.952698E-05
 0.443756	4.821167E-05
 0.438721	4.698181E-05
 0.433716	4.582825E-05
 0.428711	4.474182E-05
 0.423706	4.370728E-05
 0.418701	4.272766E-05
 0.413696	4.178467E-05
 0.408691	4.088135E-05
 0.403687	4.001160E-05
 0.398682	3.917236E-05
 0.393677	3.836365E-05
 0.388672	3.757324E-05
 0.383698	3.681335E-05
 0.378693	3.606873E-05
 0.373657	3.534241E-05
 0.368652	3.463440E-05
 0.363678	3.394165E-05
 0.358673	3.326111E-05
 0.353668	3.259277E-05
 0.348663	3.193970E-05
 0.343658	3.129272E-05
 0.338654	3.066101E-05
 0.333649	3.003235E-05
 0.328644	2.941589E-05
 0.323639	2.879944E-05
 0.318634	2.819214E-05
 0.313629	2.758789E-05
 0.308624	2.698669E-05
 0.303619	2.638245E-05
 0.298615	2.579041E-05
 0.293610	2.518921E-05
 0.288605	2.459106E-05
 0.283600	2.398376E-05
 0.278625	2.337341E-05
 0.273621	2.276001E-05
 0.268616	2.213135E-05
 0.263611	2.149963E-05
 0.258606	2.084351E-05
 0.253601	2.017822E-05
 0.248596	1.949158E-05
 0.243591	1.878662E-05
 0.238586	1.805420E-05
 0.233582	1.729126E-05
 0.228577	1.649475E-05
 0.223572	1.565857E-05
 0.218567	1.478271E-05
 0.213562	1.385803E-05
 0.208588	1.287537E-05
 0.203583	1.183472E-05
 0.198578	1.072998E-05
 0.193573	9.555054E-06
 0.188568	8.297729E-06
 0.183533	6.967163E-06
 0.178558	5.538940E-06
 0.173553	4.029236E-06
 0.168549	2.415161E-06
 0.163544	7.019043E-07
 0.158539	-1.112061E-06
 0.153534	-3.030396E-06
 0.148529	-5.053711E-06
 0.143524	-7.192993E-06
 0.138550	-9.423828E-06
 0.133545	-1.176147E-05
 0.128540	-1.419678E-05
 0.123535	-1.673584E-05
 0.118500	-1.937256E-05
 0.113525	-2.210083E-05
 0.108521	-2.491455E-05
 0.103516	-2.781372E-05
 0.098511	-3.079224E-05
 0.093506	-3.385010E-05
 0.088501	-3.697815E-05
 0.083527	-4.017029E-05
 0.078522	-4.343262E-05
 0.073517	-4.674683E-05
 0.068512	-5.014038E-05
 0.063507	-5.358887E-05
 0.058502	-5.703735E-05
 0.053497	-6.057739E-05
 0.048480	-6.411743E-05
 0.043478	-6.768799E-05
 0.038474	-7.128906E-05
 0.033472	-7.495117E-05
 0.028464	-7.861328E-05
 0.023462	-8.227539E-05
 0.018460	-8.596802E-05
 0.013455	-8.966064E-05
 0.008456	-9.338379E-05
 0.003448	-9.707642E-05
 -0.001556	-1.007996E-04
 -0.006561	-1.044922E-04
 -0.011560	-1.081848E-04
 -0.016568	-1.118469E-04
 -0.021570	-1.155090E-04
 -0.026572	-1.191406E-04
 -0.031577	-1.227417E-04
 -0.036578	-1.262817E-04
 -0.041583	-1.298218E-04
 -0.046585	-1.332703E-04
 -0.051544	-1.366882E-04
 -0.056549	-1.400452E-04
 -0.061523	-1.433105E-04
 -0.066559	-1.465149E-04
 -0.071533	-1.496277E-04
 -0.076538	-1.526184E-04
 -0.081543	-1.555176E-04
 -0.086548	-1.582642E-04
 -0.091553	-1.608582E-04
 -0.096558	-1.632996E-04
 -0.101563	-1.655273E-04
 -0.106567	-1.675720E-04
 -0.111542	-1.693726E-04
 -0.116577	-1.708984E-04
 -0.121582	-1.721191E-04
 -0.126556	-1.729736E-04
 -0.131561	-1.734924E-04
 -0.136566	-1.735535E-04
 -0.141571	-1.731873E-04
 -0.146576	-1.723328E-04
 -0.151581	-1.709290E-04
 -0.156586	-1.689758E-04
 -0.161591	-1.665039E-04
 -0.166565	-1.635437E-04
 -0.171570	-1.601563E-04
 -0.176575	-1.564026E-04
 -0.181580	-1.524658E-04
 -0.186584	-1.484070E-04
 -0.191589	-1.443787E-04
 -0.196594	-1.404724E-04
 -0.201599	-1.366882E-04
 -0.206604	-1.331482E-04
 -0.211609	-1.298218E-04
 -0.216614	-1.266785E-04
 -0.221588	-1.238098E-04
 -0.226593	-1.211243E-04
 -0.231598	-1.185913E-04
 -0.236603	-1.162720E-04
 -0.241608	-1.141357E-04
 -0.246613	-1.121216E-04
 -0.251617	-1.102295E-04
 -0.256622	-1.084900E-04
 -0.261627	-1.068420E-04
 -0.266602	-1.052856E-04
 -0.271606	-1.038513E-04
 -0.276611	-1.024780E-04
 -0.281616	-1.011963E-04
 -0.286621	-9.997559E-05
 -0.291626	-9.884644E-05
 -0.296631	-9.774780E-05
 -0.296783	-9.396362E-05
 -0.291779	-8.349609E-05
 -0.286774	-7.583618E-05
 -0.281799	-7.009888E-05
 -0.276794	-6.570435E-05
 -0.271820	-6.225586E-05
 -0.266815	-5.953979E-05
 -0.261810	-5.731201E-05
 -0.256805	-5.545044E-05
 -0.251831	-5.389404E-05
 -0.246826	-5.255127E-05
 -0.241852	-5.136108E-05
 -0.236847	-5.029297E-05
 -0.231842	-4.930420E-05
 -0.226868	-4.842529E-05
 -0.221863	-4.761353E-05
 -0.216888	-4.685059E-05
 -0.211884	-4.612732E-05
 -0.206879	-4.544983E-05
 -0.201904	-4.480286E-05
 -0.196899	-4.418030E-05
 -0.191895	-4.358215E-05
 -0.186920	-4.300537E-05
 -0.181915	-4.244690E-05
 -0.176910	-4.190369E-05
 -0.171936	-4.137573E-05
 -0.166962	-4.085999E-05
 -0.161957	-4.035339E-05
 -0.156952	-3.984985E-05
 -0.151978	-3.934631E-05
 -0.146973	-3.885803E-05
 -0.141998	-3.836365E-05
 -0.136993	-3.786011E-05
 -0.132019	-3.736267E-05
 -0.127014	-3.684692E-05
 -0.122040	-3.631897E-05
 -0.117035	-3.577881E-05
 -0.112030	-3.521423E-05
 -0.107056	-3.463135E-05
 -0.102051	-3.401489E-05
 -0.097076	-3.335876E-05
 -0.092102	-3.266296E-05
 -0.087097	-3.191528E-05
 -0.082092	-3.111572E-05
 -0.077118	-3.024292E-05
 -0.072113	-2.930603E-05
 -0.067139	-2.827759E-05
 -0.062134	-2.717590E-05
 -0.057129	-2.597656E-05
 -0.052155	-2.467041E-05
 -0.047232	-2.325745E-05
 -0.042236	-2.172852E-05
 -0.037244	-2.008667E-05
 -0.032251	-1.832275E-05
 -0.027255	-1.643982E-05
 -0.022263	-1.443481E-05
 -0.017276	-1.231384E-05
 -0.012277	-1.007385E-05
 -0.007285	-7.717896E-06
 -0.002295	-5.236816E-06
