Date: 15-08-25
Time: 14:17:16 PM

Exp. Conditions:
Cyclic voltammetry
Start potential (V) = .0000
First vertex potential (V) = .5000
Second vertex potential (V) = -.3000
Step potential (V) = .00800
Scan rate (V/s) = .70003
Equilibration time (s) = 
Number of Data Points =  200 

 Potential	  Scan 1   
 0.003207	-5.773926E-06
 0.015317	1.958923E-05
 0.023315	2.378540E-05
 0.031320	2.720947E-05
 0.039313	3.099976E-05
 0.047302	3.556519E-05
 0.055328	4.113464E-05
 0.063324	4.799500E-05
 0.071320	5.624390E-05
 0.079285	6.607056E-05
 0.087250	7.751465E-05
 0.095245	9.066772E-05
 0.103241	1.054077E-04
 0.111206	1.217346E-04
 0.119171	1.395264E-04
 0.127167	1.586304E-04
 0.135162	1.788025E-04
 0.143158	1.999817E-04
 0.151123	2.218628E-04
 0.159119	2.442322E-04
 0.167114	2.667847E-04
 0.175110	2.893677E-04
 0.183105	3.116760E-04
 0.191101	3.336182E-04
 0.199097	3.542480E-04
 0.207062	3.736267E-04
 0.215057	3.913879E-04
 0.223053	4.069214E-04
 0.231049	4.197693E-04
 0.239014	4.292603E-04
 0.247009	4.349365E-04
 0.255005	4.360352E-04
 0.263000	4.323425E-04
 0.270996	4.238281E-04
 0.278992	4.110413E-04
 0.286987	3.952026E-04
 0.294952	3.777771E-04
 0.302948	3.602600E-04
 0.310944	3.436584E-04
 0.318939	3.285217E-04
 0.326904	3.150330E-04
 0.334900	3.030396E-04
 0.342896	2.924500E-04
 0.350861	2.829590E-04
 0.358856	2.744751E-04
 0.366821	2.668457E-04
 0.374817	2.599182E-04
 0.382813	2.535706E-04
 0.390778	2.477112E-04
 0.398773	2.423096E-04
 0.406769	2.372437E-04
 0.414734	2.325439E-04
 0.422729	2.281189E-04
 0.430695	2.238464E-04
 0.438690	2.197876E-04
 0.446686	2.158813E-04
 0.454651	2.120361E-04
 0.462646	2.083130E-04
 0.470642	2.046204E-04
 0.478607	2.010193E-04
 0.486603	1.973877E-04
 0.494598	1.938171E-04
 0.502930	1.902771E-04
 0.495758	1.607971E-04
 0.487732	1.451416E-04
 0.479736	1.353149E-04
 0.471710	1.278687E-04
 0.463715	1.216736E-04
 0.455719	1.162720E-04
 0.447723	1.114502E-04
 0.439728	1.070251E-04
 0.431702	1.029053E-04
 0.423706	9.899902E-05
 0.415710	9.524536E-05
 0.407684	9.161377E-05
 0.399689	8.813477E-05
 0.391724	8.474731E-05
 0.383698	8.135986E-05
 0.375702	7.803345E-05
 0.367706	7.473755E-05
 0.359711	7.147217E-05
 0.351715	6.820679E-05
 0.343719	6.494141E-05
 0.335724	6.161499E-05
 0.327728	5.828857E-05
 0.319733	5.484009E-05
 0.311707	5.133057E-05
 0.303711	4.782410E-05
 0.295715	4.400330E-05
 0.287720	3.999023E-05
 0.279724	3.568115E-05
 0.271729	3.102417E-05
 0.263733	2.591553E-05
 0.255737	1.974487E-05
 0.247742	1.379700E-05
 0.239746	6.771851E-06
 0.231750	-1.138611E-06
 0.223755	-1.012878E-05
 0.215790	-2.022095E-05
 0.207794	-3.149719E-05
 0.199799	-4.407349E-05
 0.191803	-5.804443E-05
 0.183807	-7.324219E-05
 0.175812	-8.969116E-05
 0.167816	-1.073303E-04
 0.159821	-1.260071E-04
 0.151825	-1.455383E-04
 0.143829	-1.658020E-04
 0.135834	-1.866150E-04
 0.127838	-2.075806E-04
 0.119843	-2.285767E-04
 0.111847	-2.492676E-04
 0.103851	-2.693176E-04
 0.095856	-2.883911E-04
 0.087860	-3.061218E-04
 0.079865	-3.218994E-04
 0.071869	-3.353271E-04
 0.063873	-3.457031E-04
 0.055847	-3.523560E-04
 0.047842	-3.544922E-04
 0.039825	-3.513489E-04
 0.031815	-3.426514E-04
 0.023804	-3.290100E-04
 0.015790	-3.118591E-04
 0.007794	-2.930603E-04
 -0.000220	-2.745361E-04
 -0.008221	-2.574158E-04
 -0.016229	-2.421875E-04
 -0.024228	-2.289124E-04
 -0.032233	-2.173462E-04
 -0.040231	-2.073059E-04
 -0.048233	-1.985168E-04
 -0.056183	-1.907654E-04
 -0.064178	-1.839294E-04
 -0.072174	-1.778870E-04
 -0.080170	-1.724854E-04
 -0.088165	-1.676025E-04
 -0.096191	-1.632690E-04
 -0.104187	-1.593018E-04
 -0.112183	-1.557617E-04
 -0.120178	-1.524658E-04
 -0.128174	-1.495056E-04
 -0.136169	-1.467590E-04
 -0.144165	-1.442566E-04
 -0.152161	-1.419678E-04
 -0.160156	-1.399841E-04
 -0.168152	-1.378784E-04
 -0.176147	-1.360168E-04
 -0.184143	-1.343079E-04
 -0.192139	-1.327209E-04
 -0.200134	-1.312256E-04
 -0.208130	-1.298523E-04
 -0.216125	-1.286011E-04
 -0.224121	-1.273804E-04
 -0.232117	-1.262817E-04
 -0.240112	-1.253052E-04
 -0.248108	-1.244202E-04
 -0.256134	-1.235657E-04
 -0.264130	-1.228027E-04
 -0.272125	-1.221008E-04
 -0.280121	-1.214600E-04
 -0.288116	-1.209106E-04
 -0.296112	-1.203613E-04
 -0.293762	-8.370972E-05
 -0.285767	-4.235840E-05
 -0.277740	-2.891541E-05
 -0.269745	-2.384949E-05
 -0.261749	-2.143860E-05
 -0.253723	-1.997070E-05
 -0.245728	-1.893005E-05
 -0.237732	-1.782837E-05
 -0.229736	-1.738281E-05
 -0.221741	-1.683350E-05
 -0.213776	-1.626282E-05
 -0.205780	-1.581421E-05
 -0.197784	-1.536255E-05
 -0.189789	-1.496277E-05
 -0.181793	-1.459961E-05
 -0.173798	-1.425171E-05
 -0.165833	-1.395874E-05
 -0.157837	-1.367493E-05
 -0.149841	-1.341553E-05
 -0.141846	-1.315918E-05
 -0.133881	-1.293945E-05
 -0.125885	-1.273193E-05
 -0.117889	-1.253357E-05
 -0.109894	-1.233521E-05
 -0.101929	-1.210938E-05
 -0.093933	-1.194153E-05
 -0.085938	-1.170654E-05
 -0.077972	-1.148071E-05
 -0.069977	-1.124268E-05
 -0.061981	-1.097717E-05
 -0.053986	-1.067505E-05
 -0.046094	-1.024475E-05
 -0.038107	-9.759521E-06
 -0.030115	-9.201050E-06
 -0.022131	-8.444214E-06
 -0.014142	-7.568359E-06
 -0.006152	-6.402588E-06

 Potential	  Scan 2   
 0.001831	-5.020142E-06
 0.009811	-3.211365E-06
 0.017804	-1.063538E-06
 0.025784	1.731873E-06
 0.033777	5.236816E-06
 0.041760	9.588623E-06
 0.049744	1.499939E-05
 0.057739	2.159119E-05
 0.065735	2.957153E-05
 0.073730	3.905945E-05
 0.081696	5.010986E-05
 0.089691	6.292725E-05
 0.097656	7.733154E-05
 0.105652	9.329224E-05
 0.113647	1.107483E-04
 0.121613	1.295166E-04
 0.129608	1.495056E-04
 0.137573	1.704407E-04
 0.145569	1.921692E-04
 0.153564	2.145081E-04
 0.161530	2.370911E-04
 0.169556	2.597656E-04
 0.177521	2.822571E-04
 0.185516	3.042297E-04
 0.193512	3.256531E-04
 0.201508	3.455200E-04
 0.209503	3.639221E-04
 0.217468	3.803406E-04
 0.225464	3.942566E-04
 0.233459	4.050598E-04
 0.241455	4.122314E-04
 0.249451	4.151306E-04
 0.257416	4.132690E-04
 0.265411	4.065552E-04
 0.273407	3.953552E-04
 0.281403	3.804932E-04
 0.289398	3.634644E-04
 0.297394	3.458252E-04
 0.305359	3.288269E-04
 0.313354	3.130798E-04
 0.321350	2.989502E-04
 0.329346	2.864075E-04
 0.337311	2.752686E-04
 0.345306	2.653503E-04
 0.353271	2.565308E-04
 0.361267	2.485352E-04
 0.369232	2.413025E-04
 0.377228	2.347412E-04
 0.385223	2.286987E-04
 0.393188	2.231445E-04
 0.401184	2.179565E-04
 0.409180	2.131348E-04
 0.417145	2.086182E-04
 0.425140	2.043762E-04
 0.433136	2.002869E-04
 0.441132	1.964722E-04
 0.449097	1.927490E-04
 0.457092	1.891479E-04
 0.465088	1.856995E-04
 0.473053	1.823120E-04
 0.481049	1.789856E-04
 0.489044	1.757202E-04
 0.497009	1.725159E-04
 0.499023	1.607971E-04
 0.490997	1.342773E-04
 0.483002	1.226807E-04
 0.475006	1.145935E-04
 0.466980	1.081238E-04
 0.458984	1.026306E-04
 0.450989	9.783936E-05
 0.442993	9.344482E-05
 0.434967	8.938599E-05
 0.426971	8.560181E-05
 0.418976	8.200073E-05
 0.410980	7.849121E-05
 0.402954	7.513428E-05
 0.394989	7.186890E-05
 0.386963	6.866455E-05
 0.378967	6.549072E-05
 0.370972	6.231689E-05
 0.362976	5.920410E-05
 0.354980	5.609131E-05
 0.346985	5.294800E-05
 0.338989	4.986572E-05
 0.330994	4.673767E-05
 0.322968	4.350891E-05
 0.315002	4.020386E-05
 0.306976	3.678894E-05
 0.298981	3.321228E-05
 0.290985	2.945862E-05
 0.282990	2.487183E-05
 0.274994	2.100525E-05
 0.266998	1.631165E-05
 0.259003	1.117249E-05
 0.251007	5.410767E-06
 0.243011	-1.000671E-06
 0.235016	-8.285522E-06
 0.227020	-1.649780E-05
 0.219025	-2.575684E-05
 0.211029	-3.618774E-05
 0.203064	-4.786682E-05
 0.195038	-6.091309E-05
 0.187042	-7.519531E-05
 0.179047	-9.082031E-05
 0.171082	-1.076355E-04
 0.163086	-1.255798E-04
 0.155090	-1.445313E-04
 0.147095	-1.643066E-04
 0.139069	-1.847229E-04
 0.131073	-2.055054E-04
 0.123077	-2.264099E-04
 0.115082	-2.471924E-04
 0.107117	-2.675476E-04
 0.099121	-2.871399E-04
 0.091125	-3.056335E-04
 0.083130	-3.224792E-04
 0.075134	-3.371887E-04
 0.067139	-3.493652E-04
 0.059113	-3.581543E-04
 0.051086	-3.628540E-04
 0.043085	-3.627319E-04
 0.035068	-3.571167E-04
 0.027063	-3.462219E-04
 0.019043	-3.309021E-04
 0.011038	-3.128662E-04
 0.003030	-2.941284E-04
 -0.004968	-2.761230E-04
 -0.012982	-2.598572E-04
 -0.020981	-2.455444E-04
 -0.028983	-2.330322E-04
 -0.036990	-2.221375E-04
 -0.044986	-2.126465E-04
 -0.052948	-2.042542E-04
 -0.060944	-1.968994E-04
 -0.068939	-1.903687E-04
 -0.076935	-1.845398E-04
 -0.084930	-1.792908E-04
 -0.092926	-1.745605E-04
 -0.100922	-1.703491E-04
 -0.108917	-1.664429E-04
 -0.116913	-1.629028E-04
 -0.124908	-1.597290E-04
 -0.132904	-1.567383E-04
 -0.140900	-1.540222E-04
 -0.148895	-1.515198E-04
 -0.156891	-1.492004E-04
 -0.164886	-1.470337E-04
 -0.172882	-1.450500E-04
 -0.180878	-1.432190E-04
 -0.188904	-1.415100E-04
 -0.196869	-1.399536E-04
 -0.204865	-1.384888E-04
 -0.212860	-1.371155E-04
 -0.220886	-1.358337E-04
 -0.228882	-1.346436E-04
 -0.236847	-1.336060E-04
 -0.244843	-1.325989E-04
 -0.252869	-1.316833E-04
 -0.260864	-1.308289E-04
 -0.268860	-1.300659E-04
 -0.276855	-1.293640E-04
 -0.284851	-1.286926E-04
 -0.292847	-1.281433E-04
 -0.297211	-1.253052E-04
 -0.289215	-6.167603E-05
 -0.281219	-4.054565E-05
 -0.273193	-3.309326E-05
 -0.265198	-2.988281E-05
 -0.257202	-2.811279E-05
 -0.249176	-2.691956E-05
 -0.241211	-2.597351E-05
 -0.233215	-2.487488E-05
 -0.225220	-2.445984E-05
 -0.217224	-2.391052E-05
 -0.209229	-2.335510E-05
 -0.201233	-2.287903E-05
 -0.193237	-2.240295E-05
 -0.185242	-2.197876E-05
 -0.177246	-2.159119E-05
 -0.169281	-2.124023E-05
 -0.161285	-2.089233E-05
 -0.153290	-2.058411E-05
 -0.145294	-2.030334E-05
 -0.137329	-2.002563E-05
 -0.129333	-1.975403E-05
 -0.121338	-1.951294E-05
 -0.113342	-1.925049E-05
 -0.105377	-1.903381E-05
 -0.097382	-1.877136E-05
 -0.089386	-1.852722E-05
 -0.081421	-1.828003E-05
 -0.073425	-1.799622E-05
 -0.065430	-1.769409E-05
 -0.057434	-1.732788E-05
 -0.049438	-1.691895E-05
 -0.041547	-1.643982E-05
 -0.033560	-1.584778E-05
 -0.025574	-1.513367E-05
 -0.017587	-1.423950E-05
 -0.009598	-1.313782E-05
 -0.001611	-1.177979E-05

 Potential	  Scan 3   
 0.006390	-1.011963E-05
 0.014362	-8.056641E-06
 0.022351	-5.413818E-06
 0.030328	-2.167053E-06
 0.038315	1.928711E-06
 0.046301	6.961060E-06
 0.054321	1.320496E-05
 0.062317	2.076111E-05
 0.070282	2.970886E-05
 0.078247	4.032288E-05
 0.086243	5.255127E-05
 0.094208	6.643677E-05
 0.102203	8.190918E-05
 0.110199	9.890747E-05
 0.118164	1.172791E-04
 0.126160	1.368713E-04
 0.134125	1.574707E-04
 0.142120	1.789856E-04
 0.150085	2.011414E-04
 0.158112	2.236633E-04
 0.166077	2.463684E-04
 0.174072	2.689209E-04
 0.182068	2.911072E-04
 0.190063	3.125916E-04
 0.198059	3.333130E-04
 0.206055	3.522034E-04
 0.214020	3.693237E-04
 0.222015	3.841248E-04
 0.230011	3.960266E-04
 0.238007	4.045105E-04
 0.246002	4.088745E-04
 0.253998	4.086914E-04
 0.261963	4.036560E-04
 0.269989	3.938293E-04
 0.277954	3.800964E-04
 0.285950	3.636780E-04
 0.293945	3.460999E-04
 0.301941	3.287659E-04
 0.309906	3.125305E-04
 0.317902	2.978210E-04
 0.325897	2.847595E-04
 0.333893	2.731628E-04
 0.341858	2.628174E-04
 0.349854	2.536621E-04
 0.357819	2.453918E-04
 0.365814	2.378845E-04
 0.373810	2.310791E-04
 0.381775	2.248840E-04
 0.389771	2.191467E-04
 0.397766	2.138062E-04
 0.405731	2.088928E-04
 0.413727	2.042542E-04
 0.421692	1.998901E-04
 0.429688	1.957703E-04
 0.437683	1.918640E-04
 0.445679	1.880798E-04
 0.453644	1.844482E-04
 0.461639	1.809692E-04
 0.469635	1.775513E-04
 0.477600	1.742249E-04
 0.485596	1.709595E-04
 0.493561	1.677856E-04
 0.502014	1.646423E-04
 0.496338	1.383057E-04
 0.488312	1.225586E-04
 0.480316	1.130981E-04
 0.472290	1.059875E-04
 0.464294	1.001587E-04
 0.456299	9.512329E-05
 0.448273	9.060669E-05
 0.440277	8.645630E-05
 0.432281	8.264160E-05
 0.424286	7.897949E-05
 0.416290	7.546997E-05
 0.408295	7.211304E-05
 0.400269	6.887817E-05
 0.392273	6.567383E-05
 0.384277	6.250000E-05
 0.376282	5.941772E-05
 0.368286	5.633545E-05
 0.360291	5.328369E-05
 0.352295	5.023193E-05
 0.344299	4.720459E-05
 0.336304	4.411011E-05
 0.328278	4.092712E-05
 0.320282	3.772583E-05
 0.312286	3.444519E-05
 0.304291	3.104248E-05
 0.296295	2.681274E-05
 0.288300	2.351379E-05
 0.280304	1.950989E-05
 0.272308	1.515808E-05
 0.264313	1.039734E-05
 0.256317	5.117798E-06
 0.248322	-7.485962E-07
 0.240326	-7.394409E-06
 0.232330	-1.489258E-05
 0.224335	-2.329102E-05
 0.216339	-3.281860E-05
 0.208374	-4.352417E-05
 0.200348	-5.554199E-05
 0.192383	-6.884766E-05
 0.184357	-8.343506E-05
 0.176392	-9.933472E-05
 0.168396	-1.164551E-04
 0.160370	-1.346130E-04
 0.152405	-1.537781E-04
 0.144379	-1.736755E-04
 0.136383	-1.941833E-04
 0.128387	-2.149658E-04
 0.120392	-2.358398E-04
 0.112396	-2.565002E-04
 0.104401	-2.766418E-04
 0.096436	-2.959290E-04
 0.088440	-3.139648E-04
 0.080444	-3.302917E-04
 0.072418	-3.443298E-04
 0.064423	-3.555908E-04
 0.056427	-3.633423E-04
 0.048407	-3.667908E-04
 0.040393	-3.651428E-04
 0.032379	-3.580627E-04
 0.024362	-3.457947E-04
 0.016354	-3.295898E-04
 0.008353	-3.111877E-04
 0.000333	-2.925415E-04
 -0.007666	-2.750244E-04
 -0.015665	-2.592773E-04
 -0.023663	-2.454834E-04
 -0.031668	-2.334595E-04
 -0.039667	-2.229919E-04
 -0.047672	-2.138062E-04
 -0.055603	-2.057190E-04
 -0.063629	-1.986389E-04
 -0.071594	-1.923218E-04
 -0.079620	-1.866150E-04
 -0.087616	-1.814880E-04
 -0.095612	-1.769104E-04
 -0.103607	-1.727295E-04
 -0.111603	-1.689453E-04
 -0.119598	-1.655273E-04
 -0.127594	-1.623535E-04
 -0.135590	-1.594543E-04
 -0.143585	-1.567688E-04
 -0.151581	-1.543274E-04
 -0.159576	-1.520386E-04
 -0.167572	-1.499023E-04
 -0.175568	-1.479492E-04
 -0.183563	-1.461182E-04
 -0.191589	-1.444397E-04
 -0.199554	-1.429138E-04
 -0.207550	-1.414490E-04
 -0.215576	-1.401367E-04
 -0.223572	-1.388855E-04
 -0.231567	-1.377563E-04
 -0.239532	-1.366577E-04
 -0.247528	-1.356506E-04
 -0.255554	-1.347351E-04
 -0.263550	-1.339417E-04
 -0.271545	-1.331177E-04
 -0.279541	-1.324463E-04
 -0.287537	-1.318359E-04
 -0.295532	-1.312256E-04
 -0.294678	-1.015015E-04
 -0.286682	-5.532837E-05
 -0.278656	-4.057007E-05
 -0.270660	-3.506775E-05
 -0.262665	-3.249817E-05
 -0.254639	-3.096924E-05
 -0.246643	-2.981567E-05
 -0.238647	-2.894592E-05
 -0.230652	-2.782898E-05
 -0.222687	-2.748413E-05
 -0.214691	-2.692261E-05
 -0.206696	-2.638550E-05
 -0.198700	-2.589417E-05
 -0.190704	-2.542725E-05
 -0.182709	-2.500000E-05
 -0.174713	-2.461548E-05
 -0.166748	-2.426453E-05
 -0.158752	-2.392578E-05
 -0.150757	-2.359924E-05
 -0.142792	-2.331543E-05
 -0.134796	-2.302246E-05
 -0.126801	-2.276001E-05
 -0.118805	-2.249146E-05
 -0.110809	-2.223511E-05
 -0.102844	-2.197571E-05
 -0.094849	-2.173462E-05
 -0.086853	-2.145081E-05
 -0.078888	-2.116089E-05
 -0.070892	-2.088928E-05
 -0.062897	-2.053833E-05
 -0.054901	-2.014771E-05
 -0.047012	-1.971741E-05
 -0.039023	-1.916504E-05
 -0.031036	-1.852722E-05
 -0.023044	-1.773376E-05
 -0.015054	-1.676941E-05
 -0.007071	-1.560974E-05

 Potential	  Scan 4   
 0.000919	-1.410522E-05
 0.008908	-1.218567E-05
 0.016891	-1.000061E-05
 0.024878	-7.131958E-06
 0.032858	-3.602295E-06
 0.040839	8.337402E-07
 0.048825	6.323242E-06
 0.056854	1.298828E-05
 0.064819	2.107239E-05
 0.072815	3.063354E-05
 0.080780	4.181519E-05
 0.088776	5.465698E-05
 0.096741	6.912231E-05
 0.104736	8.517456E-05
 0.112701	1.026917E-04
 0.120667	1.214905E-04
 0.128662	1.414795E-04
 0.136658	1.624756E-04
 0.144653	1.842346E-04
 0.152618	2.065430E-04
 0.160645	2.292175E-04
 0.168610	2.518311E-04
 0.176605	2.743225E-04
 0.184601	2.962646E-04
 0.192596	3.174133E-04
 0.200592	3.376465E-04
 0.208588	3.559265E-04
 0.216553	3.722534E-04
 0.224548	3.860474E-04
 0.232544	3.968201E-04
 0.240540	4.038696E-04
 0.248505	4.066162E-04
 0.256531	4.046936E-04
 0.264496	3.979187E-04
 0.272491	3.865662E-04
 0.280487	3.716736E-04
 0.288483	3.546448E-04
 0.296448	3.370361E-04
 0.304443	3.200073E-04
 0.312439	3.043213E-04
 0.320435	2.901917E-04
 0.328430	2.776184E-04
 0.336395	2.665100E-04
 0.344391	2.566223E-04
 0.352356	2.477417E-04
 0.360352	2.397461E-04
 0.368347	2.325439E-04
 0.376343	2.259521E-04
 0.384308	2.198792E-04
 0.392303	2.142639E-04
 0.400269	2.091064E-04
 0.408264	2.042542E-04
 0.416260	1.997070E-04
 0.424225	1.954346E-04
 0.432220	1.914063E-04
 0.440216	1.875000E-04
 0.448181	1.837769E-04
 0.456177	1.802063E-04
 0.464172	1.767273E-04
 0.472137	1.733398E-04
 0.480133	1.700745E-04
 0.488129	1.668396E-04
 0.496094	1.636963E-04
 0.498108	1.520386E-04
 0.490112	1.259460E-04
 0.482086	1.145630E-04
 0.474091	1.065979E-04
 0.466095	1.002808E-04
 0.458069	9.490967E-05
 0.450073	9.017944E-05
 0.442078	8.587646E-05
 0.434052	8.193970E-05
 0.426056	7.821655E-05
 0.418060	7.461548E-05
 0.410065	7.122803E-05
 0.402069	6.796265E-05
 0.394073	6.469727E-05
 0.386078	6.152344E-05
 0.378052	5.841064E-05
 0.370056	5.532837E-05
 0.362061	5.221558E-05
 0.354065	4.929199E-05
 0.346069	4.620056E-05
 0.338074	4.309387E-05
 0.330078	3.995056E-05
 0.322083	3.676758E-05
 0.314087	3.350220E-05
 0.306061	2.940369E-05
 0.298065	2.638245E-05
 0.290070	2.270508E-05
 0.282074	1.874695E-05
 0.274078	1.449585E-05
 0.266083	9.829712E-06
 0.258087	4.696655E-06
 0.250122	-1.012268E-06
 0.242096	-7.424927E-06
 0.234131	-1.466370E-05
 0.226135	-2.286987E-05
 0.218140	-3.208618E-05
 0.210144	-4.247437E-05
 0.202148	-5.413818E-05
 0.194153	-6.710815E-05
 0.186157	-8.139038E-05
 0.178162	-9.692383E-05
 0.170166	-1.137085E-04
 0.162170	-1.316223E-04
 0.154175	-1.505737E-04
 0.146179	-1.702881E-04
 0.138184	-1.906128E-04
 0.130188	-2.113647E-04
 0.122192	-2.322083E-04
 0.114197	-2.529297E-04
 0.106201	-2.732544E-04
 0.098206	-2.927856E-04
 0.090210	-3.112183E-04
 0.082214	-3.279724E-04
 0.074219	-3.426514E-04
 0.066223	-3.546753E-04
 0.058197	-3.633728E-04
 0.050201	-3.679504E-04
 0.042188	-3.676758E-04
 0.034177	-3.620300E-04
 0.026163	-3.510437E-04
 0.018149	-3.356628E-04
 0.010135	-3.176575E-04
 0.002133	-2.989197E-04
 -0.005869	-2.809448E-04
 -0.013876	-2.648315E-04
 -0.021878	-2.505188E-04
 -0.029880	-2.380676E-04
 -0.037881	-2.272339E-04
 -0.045877	-2.177124E-04
 -0.053833	-2.094116E-04
 -0.061829	-2.020874E-04
 -0.069824	-1.955261E-04
 -0.077820	-1.896973E-04
 -0.085815	-1.844788E-04
 -0.093811	-1.797485E-04
 -0.101807	-1.754761E-04
 -0.109802	-1.716003E-04
 -0.117798	-1.681213E-04
 -0.125824	-1.648254E-04
 -0.133789	-1.618347E-04
 -0.141785	-1.591492E-04
 -0.149811	-1.566467E-04
 -0.157806	-1.542969E-04
 -0.165771	-1.521301E-04
 -0.173798	-1.501465E-04
 -0.181763	-1.482849E-04
 -0.189789	-1.465759E-04
 -0.197784	-1.449890E-04
 -0.205780	-1.434937E-04
 -0.213776	-1.421509E-04
 -0.221771	-1.408691E-04
 -0.229767	-1.397095E-04
 -0.237762	-1.385803E-04
 -0.245758	-1.375732E-04
 -0.253754	-1.366882E-04
 -0.261749	-1.358032E-04
 -0.269745	-1.350098E-04
 -0.277740	-1.342773E-04
 -0.285736	-1.336365E-04
 -0.293732	-1.330566E-04
 -0.295990	-1.205750E-04
 -0.287994	-6.231689E-05
 -0.279968	-4.410400E-05
 -0.271942	-3.753357E-05
 -0.263947	-3.461914E-05
 -0.255951	-3.295898E-05
 -0.247955	-3.178101E-05
 -0.239960	-3.082275E-05
 -0.231964	-2.969055E-05
 -0.223969	-2.933350E-05
 -0.215973	-2.875366E-05
 -0.207977	-2.819519E-05
 -0.199982	-2.770691E-05
 -0.192017	-2.722168E-05
 -0.184021	-2.679443E-05
 -0.176025	-2.638550E-05
 -0.168030	-2.602539E-05
 -0.160034	-2.565308E-05
 -0.152069	-2.532349E-05
 -0.144073	-2.505493E-05
 -0.136078	-2.477417E-05
 -0.128113	-2.448425E-05
 -0.120087	-2.418823E-05
 -0.112122	-2.392883E-05
 -0.104126	-2.366333E-05
 -0.096161	-2.341919E-05
 -0.088165	-2.314453E-05
 -0.080170	-2.285156E-05
 -0.072174	-2.254944E-05
 -0.064209	-2.223206E-05
 -0.056213	-2.183228E-05
 -0.048306	-2.140198E-05
 -0.040320	-2.087708E-05
 -0.032330	-2.021790E-05
 -0.024332	-1.945190E-05
 -0.016348	-1.850586E-05
 -0.008365	-1.733398E-05
 -0.000378	-1.590576E-05

 Potential	  Scan 5   
 0.007623	-1.408081E-05
 0.015598	-1.191711E-05
 0.023584	-9.121704E-06
 0.031570	-5.648804E-06
 0.039545	-1.369324E-06
 0.047528	3.949585E-06
 0.055542	1.047974E-05
 0.063538	1.835938E-05
 0.071503	2.772217E-05
 0.079498	3.869934E-05
 0.087463	5.130005E-05
 0.095459	6.555176E-05
 0.103424	8.142090E-05
 0.111420	9.872437E-05
 0.119385	1.174011E-04
 0.127380	1.372070E-04
 0.135376	1.580811E-04
 0.143341	1.797791E-04
 0.151337	2.020264E-04
 0.159332	2.246399E-04
 0.167328	2.473145E-04
 0.175323	2.697754E-04
 0.183319	2.918396E-04
 0.191284	3.130798E-04
 0.199280	3.335266E-04
 0.207275	3.520203E-04
 0.215271	3.686829E-04
 0.223236	3.828735E-04
 0.231232	3.940125E-04
 0.239227	4.016418E-04
 0.247223	4.049988E-04
 0.255219	4.037476E-04
 0.263214	3.976135E-04
 0.271210	3.868103E-04
 0.279205	3.723755E-04
 0.287201	3.555298E-04
 0.295166	3.378906E-04
 0.303162	3.207397E-04
 0.311127	3.048096E-04
 0.319122	2.904358E-04
 0.327118	2.776489E-04
 0.335114	2.663574E-04
 0.343079	2.562561E-04
 0.351074	2.472839E-04
 0.359039	2.391663E-04
 0.367035	2.318115E-04
 0.375031	2.251587E-04
 0.382996	2.189941E-04
 0.390991	2.133179E-04
 0.398987	2.080688E-04
 0.406952	2.031860E-04
 0.414948	1.985779E-04
 0.422943	1.942749E-04
 0.430908	1.901855E-04
 0.438904	1.862793E-04
 0.446899	1.825256E-04
 0.454865	1.789246E-04
 0.462860	1.754456E-04
 0.470825	1.720581E-04
 0.478821	1.687622E-04
 0.486816	1.655273E-04
 0.494781	1.623535E-04
 0.502625	1.592407E-04
 0.495026	1.303101E-04
 0.487000	1.163635E-04
 0.479004	1.075439E-04
 0.471008	1.007996E-04
 0.462982	9.515381E-05
 0.454987	9.027100E-05
 0.446991	8.587646E-05
 0.438995	8.184814E-05
 0.430969	7.809448E-05
 0.422974	7.449341E-05
 0.414978	7.107544E-05
 0.406982	6.777954E-05
 0.398987	6.454468E-05
 0.390991	6.140137E-05
 0.382996	5.828857E-05
 0.374969	5.520630E-05
 0.366974	5.218506E-05
 0.359009	4.921570E-05
 0.350983	4.618835E-05
 0.342987	4.310608E-05
 0.334991	4.002380E-05
 0.326996	3.688965E-05
 0.319000	3.370361E-05
 0.310974	2.968140E-05
 0.302979	2.681274E-05
 0.294983	2.322083E-05
 0.286987	1.951599E-05
 0.278992	1.546936E-05
 0.271027	1.109619E-05
 0.263000	6.280518E-06
 0.255035	9.893799E-07
 0.247009	-4.953003E-06
 0.239044	-1.163635E-05
 0.231049	-1.917725E-05
 0.223053	-2.770081E-05
 0.215057	-3.734436E-05
 0.207062	-4.813232E-05
 0.199066	-6.027222E-05
 0.191071	-7.366943E-05
 0.183075	-8.837891E-05
 0.175079	-1.043701E-04
 0.167084	-1.216125E-04
 0.159088	-1.398621E-04
 0.151093	-1.590881E-04
 0.143097	-1.790161E-04
 0.135101	-1.995239E-04
 0.127106	-2.202759E-04
 0.119110	-2.411499E-04
 0.111115	-2.617188E-04
 0.103119	-2.818909E-04
 0.095123	-3.009338E-04
 0.087128	-3.187866E-04
 0.079132	-3.348389E-04
 0.071136	-3.486023E-04
 0.063141	-3.595276E-04
 0.055115	-3.668213E-04
 0.047110	-3.696899E-04
 0.039099	-3.674927E-04
 0.031088	-3.598328E-04
 0.023074	-3.471069E-04
 0.015060	-3.305969E-04
 0.007068	-3.121033E-04
 -0.000952	-2.935791E-04
 -0.008957	-2.762451E-04
 -0.016959	-2.607117E-04
 -0.024963	-2.471313E-04
 -0.032956	-2.352905E-04
 -0.040958	-2.249451E-04
 -0.048959	-2.159119E-04
 -0.056915	-2.079773E-04
 -0.064911	-2.009277E-04
 -0.072906	-1.946716E-04
 -0.080902	-1.890259E-04
 -0.088898	-1.840210E-04
 -0.096893	-1.794434E-04
 -0.104889	-1.753235E-04
 -0.112885	-1.716003E-04
 -0.120880	-1.681519E-04
 -0.128876	-1.650391E-04
 -0.136902	-1.621704E-04
 -0.144867	-1.595154E-04
 -0.152863	-1.570435E-04
 -0.160889	-1.547852E-04
 -0.168884	-1.526794E-04
 -0.176849	-1.507263E-04
 -0.184875	-1.489258E-04
 -0.192871	-1.472778E-04
 -0.200867	-1.456909E-04
 -0.208862	-1.442566E-04
 -0.216858	-1.429138E-04
 -0.224854	-1.416931E-04
 -0.232849	-1.405334E-04
 -0.240845	-1.394653E-04
 -0.248840	-1.384888E-04
 -0.256836	-1.375732E-04
 -0.264832	-1.367188E-04
 -0.272827	-1.359558E-04
 -0.280823	-1.352844E-04
 -0.288818	-1.346436E-04
 -0.296814	-1.340332E-04
 -0.293732	-9.402466E-05
 -0.285706	-5.505371E-05
 -0.277679	-4.235535E-05
 -0.269684	-3.749390E-05
 -0.261688	-3.516235E-05
 -0.253662	-3.367310E-05
 -0.245667	-3.257446E-05
 -0.237671	-3.170471E-05
 -0.229675	-3.058777E-05
 -0.221680	-3.023682E-05
 -0.213715	-2.971497E-05
 -0.205719	-2.918091E-05
 -0.197723	-2.866516E-05
 -0.189728	-2.819824E-05
 -0.181732	-2.778931E-05
 -0.173737	-2.738037E-05
 -0.165741	-2.700500E-05
 -0.157776	-2.667847E-05
 -0.149780	-2.634888E-05
 -0.141785	-2.605591E-05
 -0.133789	-2.577209E-05
 -0.125824	-2.545471E-05
 -0.117828	-2.518921E-05
 -0.109833	-2.497253E-05
 -0.101868	-2.470398E-05
 -0.093872	-2.441406E-05
 -0.085876	-2.416077E-05
 -0.077911	-2.386475E-05
 -0.069916	-2.354736E-05
 -0.061920	-2.319031E-05
 -0.053925	-2.279053E-05
 -0.046030	-2.233887E-05
 -0.038040	-2.177734E-05
 -0.030051	-2.108459E-05
 -0.022061	-2.026062E-05
 -0.014072	-1.923218E-05
 -0.006085	-1.799927E-05
