Date: 15-08-25
Time: 14:18:03 PM

Exp. Conditions:
Cyclic voltammetry
Start potential (V) = .0000
First vertex potential (V) = .5000
Second vertex potential (V) = -.3000
Step potential (V) = .00800
Scan rate (V/s) = .80000
Equilibration time (s) = 
Number of Data Points =  200 

 Potential	  Scan 1   
 0.003198	-5.392456E-06
 0.015308	2.316895E-05
 0.023318	2.811279E-05
 0.031329	3.211365E-05
 0.039325	3.620300E-05
 0.047321	4.103394E-05
 0.055359	4.682617E-05
 0.063354	5.416870E-05
 0.071320	6.283569E-05
 0.079315	7.305908E-05
 0.087280	8.505249E-05
 0.095276	9.872437E-05
 0.103241	1.141052E-04
 0.111237	1.308899E-04
 0.119232	1.493835E-04
 0.127197	1.691589E-04
 0.135193	1.899719E-04
 0.143188	2.118225E-04
 0.151184	2.344666E-04
 0.159180	2.575989E-04
 0.167175	2.810059E-04
 0.175171	3.044434E-04
 0.183167	3.280640E-04
 0.191162	3.506470E-04
 0.199127	3.726196E-04
 0.207123	3.931580E-04
 0.215118	4.126892E-04
 0.223114	4.300537E-04
 0.231110	4.449158E-04
 0.239105	4.567566E-04
 0.247070	4.649353E-04
 0.255096	4.689941E-04
 0.263062	4.682922E-04
 0.271088	4.624939E-04
 0.279053	4.518433E-04
 0.287048	4.371338E-04
 0.295044	4.195862E-04
 0.303040	4.012146E-04
 0.311035	3.829956E-04
 0.319031	3.659058E-04
 0.327026	3.504333E-04
 0.334991	3.366089E-04
 0.342987	3.244019E-04
 0.350983	3.135071E-04
 0.358948	3.038025E-04
 0.366943	2.950439E-04
 0.374939	2.871704E-04
 0.382904	2.799377E-04
 0.390900	2.733154E-04
 0.398895	2.672119E-04
 0.406860	2.615356E-04
 0.414856	2.562866E-04
 0.422852	2.513428E-04
 0.430817	2.466125E-04
 0.438812	2.420959E-04
 0.446808	2.377930E-04
 0.454803	2.335510E-04
 0.462769	2.294617E-04
 0.470764	2.254333E-04
 0.478760	2.213745E-04
 0.486755	2.174988E-04
 0.494720	2.135620E-04
 0.502319	2.096863E-04
 0.494415	1.757202E-04
 0.486420	1.589355E-04
 0.478424	1.481323E-04
 0.470398	1.398315E-04
 0.462402	1.329041E-04
 0.454407	1.269531E-04
 0.446381	1.215515E-04
 0.438385	1.166382E-04
 0.430389	1.120300E-04
 0.422394	1.076660E-04
 0.414398	1.034851E-04
 0.406372	9.951782E-05
 0.398376	9.561157E-05
 0.390381	9.179688E-05
 0.382385	8.804321E-05
 0.374359	8.438110E-05
 0.366394	8.059692E-05
 0.358368	7.711792E-05
 0.350372	7.342529E-05
 0.342377	6.979370E-05
 0.334381	6.613159E-05
 0.326385	6.240845E-05
 0.318390	5.856323E-05
 0.310364	5.468750E-05
 0.302368	5.050659E-05
 0.294373	4.647827E-05
 0.286377	4.202576E-05
 0.278381	3.734436E-05
 0.270386	3.220520E-05
 0.262390	2.662354E-05
 0.254395	2.043152E-05
 0.246399	1.299438E-05
 0.238403	5.563354E-06
 0.230408	-2.804565E-06
 0.222412	-1.241150E-05
 0.214417	-2.315674E-05
 0.206421	-3.514404E-05
 0.198425	-4.840088E-05
 0.190460	-6.304932E-05
 0.182434	-7.901001E-05
 0.174469	-9.613037E-05
 0.166473	-1.145935E-04
 0.158478	-1.338501E-04
 0.150482	-1.541443E-04
 0.142456	-1.751099E-04
 0.134460	-1.966858E-04
 0.126465	-2.184448E-04
 0.118469	-2.402954E-04
 0.110474	-2.618103E-04
 0.102478	-2.828979E-04
 0.094513	-3.029785E-04
 0.086487	-3.218689E-04
 0.078522	-3.389587E-04
 0.070496	-3.538818E-04
 0.062500	-3.660583E-04
 0.054474	-3.748169E-04
 0.046475	-3.790894E-04
 0.038458	-3.783264E-04
 0.030444	-3.719482E-04
 0.022430	-3.599854E-04
 0.014413	-3.434448E-04
 0.006421	-3.240967E-04
 -0.001602	-3.041992E-04
 -0.009613	-2.851257E-04
 -0.017615	-2.678833E-04
 -0.025616	-2.526855E-04
 -0.033621	-2.395935E-04
 -0.041623	-2.280273E-04
 -0.049591	-2.180786E-04
 -0.057587	-2.093201E-04
 -0.065582	-2.016602E-04
 -0.073578	-1.947632E-04
 -0.081573	-1.887207E-04
 -0.089569	-1.833191E-04
 -0.097565	-1.784973E-04
 -0.105591	-1.741943E-04
 -0.113586	-1.701355E-04
 -0.121582	-1.666565E-04
 -0.129578	-1.632385E-04
 -0.137573	-1.602173E-04
 -0.145569	-1.575012E-04
 -0.153564	-1.549683E-04
 -0.161560	-1.526794E-04
 -0.169556	-1.505127E-04
 -0.177551	-1.485901E-04
 -0.185547	-1.466980E-04
 -0.193573	-1.449890E-04
 -0.201538	-1.433716E-04
 -0.209564	-1.419067E-04
 -0.217560	-1.405640E-04
 -0.225555	-1.392822E-04
 -0.233551	-1.381226E-04
 -0.241547	-1.370544E-04
 -0.249542	-1.360474E-04
 -0.257538	-1.351929E-04
 -0.265533	-1.343689E-04
 -0.273529	-1.336365E-04
 -0.281525	-1.331177E-04
 -0.289520	-1.322937E-04
 -0.297516	-1.317444E-04
 -0.292450	-8.227539E-05
 -0.284454	-4.340210E-05
 -0.276428	-2.891541E-05
 -0.268433	-2.285156E-05
 -0.260406	-1.993713E-05
 -0.252411	-1.817932E-05
 -0.244415	-1.698608E-05
 -0.236420	-1.571045E-05
 -0.228424	-1.524658E-05
 -0.220428	-1.462402E-05
 -0.212433	-1.416626E-05
 -0.204437	-1.352234E-05
 -0.196442	-1.301270E-05
 -0.188446	-1.262207E-05
 -0.180450	-1.226196E-05
 -0.172455	-1.194153E-05
 -0.164490	-1.161804E-05
 -0.156494	-1.139832E-05
 -0.148499	-1.109924E-05
 -0.140503	-1.086426E-05
 -0.132507	-1.077271E-05
 -0.124512	-1.039124E-05
 -0.116547	-1.018677E-05
 -0.108551	-1.001587E-05
 -0.100555	-9.829712E-06
 -0.092560	-9.640503E-06
 -0.084595	-9.561157E-06
 -0.076599	-9.204102E-06
 -0.068604	-8.950806E-06
 -0.060608	-8.795166E-06
 -0.052612	-8.331299E-06
 -0.044720	-7.904053E-06
 -0.036728	-7.400513E-06
 -0.028741	-6.777954E-06
 -0.020752	-5.978394E-06
 -0.012756	-4.956055E-06
 -0.004767	-3.724976E-06

 Potential	  Scan 2   
 0.003210	-2.141418E-06
 0.011203	-1.843262E-07
 0.019186	2.288818E-06
 0.027182	5.413818E-06
 0.035168	9.289551E-06
 0.043152	1.412964E-05
 0.051178	2.006226E-05
 0.059143	2.730408E-05
 0.067139	3.602295E-05
 0.075104	4.631958E-05
 0.083099	5.813599E-05
 0.091095	7.189941E-05
 0.099091	8.724976E-05
 0.107056	1.041565E-04
 0.115051	1.224976E-04
 0.123016	1.421509E-04
 0.131012	1.629639E-04
 0.138977	1.848145E-04
 0.146973	2.073975E-04
 0.154968	2.305908E-04
 0.162964	2.540283E-04
 0.170959	2.775574E-04
 0.178955	3.009338E-04
 0.186951	3.241272E-04
 0.194946	3.460693E-04
 0.202942	3.670959E-04
 0.210907	3.866882E-04
 0.218903	4.043274E-04
 0.226898	4.196472E-04
 0.234894	4.320374E-04
 0.242889	4.409180E-04
 0.250885	4.456482E-04
 0.258881	4.457397E-04
 0.266876	4.407654E-04
 0.274872	4.309082E-04
 0.282867	4.168091E-04
 0.290833	3.998108E-04
 0.298828	3.813171E-04
 0.306824	3.629456E-04
 0.314819	3.455811E-04
 0.322815	3.298340E-04
 0.330780	3.157349E-04
 0.338776	3.032532E-04
 0.346771	2.921143E-04
 0.354767	2.822266E-04
 0.362732	2.732849E-04
 0.370728	2.652588E-04
 0.378723	2.579346E-04
 0.386688	2.512207E-04
 0.394684	2.449951E-04
 0.402679	2.393188E-04
 0.410645	2.340088E-04
 0.418640	2.290344E-04
 0.426636	2.243042E-04
 0.434631	2.198792E-04
 0.442627	2.156372E-04
 0.450592	2.115784E-04
 0.458588	2.076721E-04
 0.466583	2.038269E-04
 0.474548	2.001648E-04
 0.482544	1.965637E-04
 0.490540	1.929932E-04
 0.498505	1.894836E-04
 0.499573	1.730347E-04
 0.491333	1.467590E-04
 0.483337	1.340637E-04
 0.475311	1.251526E-04
 0.467316	1.179810E-04
 0.459320	1.119080E-04
 0.451324	1.065369E-04
 0.443298	1.017151E-04
 0.435303	9.722900E-05
 0.427307	9.298706E-05
 0.419312	8.901978E-05
 0.411285	8.517456E-05
 0.403290	8.142090E-05
 0.395294	7.781982E-05
 0.387299	7.421875E-05
 0.379303	7.073975E-05
 0.371277	6.719971E-05
 0.363281	6.381226E-05
 0.355286	6.036377E-05
 0.347290	5.691528E-05
 0.339294	5.346680E-05
 0.331299	4.995728E-05
 0.323303	4.645386E-05
 0.315308	4.284973E-05
 0.307281	3.905945E-05
 0.299286	3.518372E-05
 0.291290	3.105164E-05
 0.283295	2.670898E-05
 0.275299	2.132263E-05
 0.267303	1.670227E-05
 0.259308	1.132813E-05
 0.251312	5.255127E-06
 0.243317	-1.532593E-06
 0.235321	-9.167480E-06
 0.227325	-1.774597E-05
 0.219330	-2.736511E-05
 0.211334	-3.816223E-05
 0.203339	-5.020142E-05
 0.195374	-6.356812E-05
 0.187347	-7.824707E-05
 0.179352	-9.426880E-05
 0.171387	-1.115417E-04
 0.163391	-1.298523E-04
 0.155396	-1.492920E-04
 0.147400	-1.695557E-04
 0.139374	-1.905212E-04
 0.131378	-2.119446E-04
 0.123383	-2.336426E-04
 0.115387	-2.552490E-04
 0.107391	-2.766418E-04
 0.099396	-2.973938E-04
 0.091431	-3.172302E-04
 0.083405	-3.357544E-04
 0.075439	-3.523254E-04
 0.067413	-3.666992E-04
 0.059418	-3.781128E-04
 0.051392	-3.859558E-04
 0.043384	-3.892822E-04
 0.035373	-3.874207E-04
 0.027356	-3.798523E-04
 0.019339	-3.668823E-04
 0.011328	-3.497314E-04
 0.003317	-3.302612E-04
 -0.004678	-3.104248E-04
 -0.012698	-2.918091E-04
 -0.020700	-2.749939E-04
 -0.028702	-2.602844E-04
 -0.036707	-2.474670E-04
 -0.044711	-2.362976E-04
 -0.052673	-2.265015E-04
 -0.060669	-2.179565E-04
 -0.068665	-2.103882E-04
 -0.076660	-2.036743E-04
 -0.084656	-1.976318E-04
 -0.092651	-1.922607E-04
 -0.100647	-1.874390E-04
 -0.108673	-1.830444E-04
 -0.116638	-1.790466E-04
 -0.124664	-1.754456E-04
 -0.132660	-1.720886E-04
 -0.140656	-1.690674E-04
 -0.148651	-1.662598E-04
 -0.156647	-1.636963E-04
 -0.164642	-1.612854E-04
 -0.172638	-1.591492E-04
 -0.180634	-1.570740E-04
 -0.188629	-1.552124E-04
 -0.196625	-1.534729E-04
 -0.204620	-1.518555E-04
 -0.212646	-1.503601E-04
 -0.220642	-1.489868E-04
 -0.228607	-1.477051E-04
 -0.236603	-1.465454E-04
 -0.244629	-1.454163E-04
 -0.252625	-1.444397E-04
 -0.260620	-1.435242E-04
 -0.268616	-1.427002E-04
 -0.276611	-1.419373E-04
 -0.284607	-1.412354E-04
 -0.292603	-1.406250E-04
 -0.297577	-1.392517E-04
 -0.289642	-7.159424E-05
 -0.281616	-4.494324E-05
 -0.273590	-3.461304E-05
 -0.265594	-3.006897E-05
 -0.257568	-2.767639E-05
 -0.249573	-2.614746E-05
 -0.241577	-2.502136E-05
 -0.233582	-2.369080E-05
 -0.225586	-2.329407E-05
 -0.217621	-2.268677E-05
 -0.209595	-2.213135E-05
 -0.201630	-2.158203E-05
 -0.193634	-2.109680E-05
 -0.185638	-2.062683E-05
 -0.177643	-2.023315E-05
 -0.169647	-1.984558E-05
 -0.161652	-1.946106E-05
 -0.153656	-1.916199E-05
 -0.145691	-1.888733E-05
 -0.137695	-1.858826E-05
 -0.129700	-1.833801E-05
 -0.121704	-1.808777E-05
 -0.113708	-1.784363E-05
 -0.105713	-1.761169E-05
 -0.097748	-1.735229E-05
 -0.089752	-1.707458E-05
 -0.081757	-1.683960E-05
 -0.073761	-1.654663E-05
 -0.065796	-1.623230E-05
 -0.057770	-1.593323E-05
 -0.049805	-1.546326E-05
 -0.041898	-1.495056E-05
 -0.033908	-1.430969E-05
 -0.025916	-1.357117E-05
 -0.017926	-1.261597E-05
 -0.009937	-1.143799E-05
 -0.001950	-9.939575E-06

 Potential	  Scan 3   
 0.006049	-8.236694E-06
 0.014026	-6.039429E-06
 0.022006	-3.217163E-06
 0.029990	2.780151E-07
 0.037985	4.614258E-06
 0.045975	1.000061E-05
 0.053986	1.654358E-05
 0.061981	2.445984E-05
 0.069977	3.393860E-05
 0.077942	4.503784E-05
 0.085907	5.783081E-05
 0.093903	7.229614E-05
 0.101898	8.840942E-05
 0.109863	1.060486E-04
 0.117828	1.250305E-04
 0.125824	1.451416E-04
 0.133820	1.665955E-04
 0.141815	1.888123E-04
 0.149780	2.117004E-04
 0.157776	2.350464E-04
 0.165771	2.585754E-04
 0.173767	2.820740E-04
 0.181763	3.052673E-04
 0.189789	3.281250E-04
 0.197754	3.496399E-04
 0.205750	3.700256E-04
 0.213745	3.887329E-04
 0.221741	4.053650E-04
 0.229706	4.193420E-04
 0.237701	4.301758E-04
 0.245697	4.371643E-04
 0.253693	4.397888E-04
 0.261688	4.375305E-04
 0.269684	4.302673E-04
 0.277679	4.183044E-04
 0.285675	4.026794E-04
 0.293671	3.847656E-04
 0.301666	3.662415E-04
 0.309662	3.482666E-04
 0.317657	3.316345E-04
 0.325623	3.166504E-04
 0.333618	3.033447E-04
 0.341614	2.914734E-04
 0.349579	2.809448E-04
 0.357574	2.715149E-04
 0.365570	2.630005E-04
 0.373535	2.552795E-04
 0.381531	2.482300E-04
 0.389526	2.417297E-04
 0.397522	2.357788E-04
 0.405487	2.302246E-04
 0.413483	2.250671E-04
 0.421478	2.202148E-04
 0.429443	2.156372E-04
 0.437439	2.112732E-04
 0.445435	2.071533E-04
 0.453430	2.031250E-04
 0.461395	1.993103E-04
 0.469391	1.955261E-04
 0.477386	1.918945E-04
 0.485352	1.883240E-04
 0.493347	1.847534E-04
 0.501709	1.813354E-04
 0.497314	1.546936E-04
 0.489319	1.358032E-04
 0.481293	1.248779E-04
 0.473297	1.166992E-04
 0.465271	1.100769E-04
 0.457275	1.043091E-04
 0.449280	9.927368E-05
 0.441284	9.457397E-05
 0.433258	9.027100E-05
 0.425262	8.618164E-05
 0.417267	8.230591E-05
 0.409241	7.855225E-05
 0.401245	7.492065E-05
 0.393250	7.138062E-05
 0.385254	6.790161E-05
 0.377258	6.445313E-05
 0.369263	6.103516E-05
 0.361267	5.758667E-05
 0.353241	5.426025E-05
 0.345245	5.084229E-05
 0.337250	4.743958E-05
 0.329254	4.390869E-05
 0.321259	4.036255E-05
 0.313263	3.672180E-05
 0.305237	3.301392E-05
 0.297241	2.916565E-05
 0.289246	2.427368E-05
 0.281250	2.053833E-05
 0.273254	1.596985E-05
 0.265259	1.094666E-05
 0.257263	5.355835E-06
 0.249268	-8.038330E-07
 0.241272	-7.736206E-06
 0.233276	-1.548157E-05
 0.225281	-2.420654E-05
 0.217316	-3.395691E-05
 0.209320	-4.492188E-05
 0.201324	-5.718994E-05
 0.193329	-7.070923E-05
 0.185333	-8.554077E-05
 0.177338	-1.017151E-04
 0.169342	-1.191101E-04
 0.161346	-1.376343E-04
 0.153351	-1.571655E-04
 0.145355	-1.775208E-04
 0.137360	-1.985779E-04
 0.129364	-2.200317E-04
 0.121338	-2.416687E-04
 0.113373	-2.633362E-04
 0.105377	-2.845154E-04
 0.097382	-3.050842E-04
 0.089386	-3.247375E-04
 0.081390	-3.427429E-04
 0.073395	-3.590393E-04
 0.065369	-3.728638E-04
 0.057373	-3.836975E-04
 0.049347	-3.906555E-04
 0.041345	-3.930969E-04
 0.033331	-3.901978E-04
 0.025314	-3.815613E-04
 0.017294	-3.677673E-04
 0.009280	-3.500671E-04
 0.001273	-3.304443E-04
 -0.006735	-3.107300E-04
 -0.014743	-2.924500E-04
 -0.022742	-2.760620E-04
 -0.030746	-2.617188E-04
 -0.038745	-2.492676E-04
 -0.046750	-2.383423E-04
 -0.054718	-2.288513E-04
 -0.062714	-2.204285E-04
 -0.070709	-2.130432E-04
 -0.078705	-2.064209E-04
 -0.086700	-2.005615E-04
 -0.094696	-1.952515E-04
 -0.102692	-1.904907E-04
 -0.110687	-1.861877E-04
 -0.118683	-1.822510E-04
 -0.126709	-1.786804E-04
 -0.134674	-1.754150E-04
 -0.142670	-1.723633E-04
 -0.150696	-1.696167E-04
 -0.158661	-1.670532E-04
 -0.166687	-1.647034E-04
 -0.174683	-1.625061E-04
 -0.182678	-1.605225E-04
 -0.190674	-1.586609E-04
 -0.198669	-1.569214E-04
 -0.206665	-1.553040E-04
 -0.214661	-1.538391E-04
 -0.222656	-1.524658E-04
 -0.230652	-1.512146E-04
 -0.238678	-1.500244E-04
 -0.246674	-1.489563E-04
 -0.254669	-1.479492E-04
 -0.262665	-1.470337E-04
 -0.270660	-1.461792E-04
 -0.278656	-1.454468E-04
 -0.286652	-1.447449E-04
 -0.294647	-1.441345E-04
 -0.295837	-1.249390E-04
 -0.287842	-6.625366E-05
 -0.279816	-4.524536E-05
 -0.271820	-3.688660E-05
 -0.263794	-3.302307E-05
 -0.255798	-3.090515E-05
 -0.247803	-2.947388E-05
 -0.239807	-2.839966E-05
 -0.231812	-2.709351E-05
 -0.223816	-2.668457E-05
 -0.215820	-2.612915E-05
 -0.207825	-2.550659E-05
 -0.199829	-2.506409E-05
 -0.191833	-2.449341E-05
 -0.183838	-2.403564E-05
 -0.175842	-2.361450E-05
 -0.167847	-2.326050E-05
 -0.159851	-2.289429E-05
 -0.151886	-2.254944E-05
 -0.143890	-2.225952E-05
 -0.135895	-2.196960E-05
 -0.127899	-2.168884E-05
 -0.119904	-2.143250E-05
 -0.111938	-2.117920E-05
 -0.103943	-2.090149E-05
 -0.095947	-2.065125E-05
 -0.087982	-2.038879E-05
 -0.079987	-2.008972E-05
 -0.071991	-1.980286E-05
 -0.063995	-1.944275E-05
 -0.056000	-1.907654E-05
 -0.048105	-1.863403E-05
 -0.040112	-1.806030E-05
 -0.032123	-1.737976E-05
 -0.024130	-1.656189E-05
 -0.016144	-1.558533E-05
 -0.008151	-1.431274E-05
 -0.000165	-1.276245E-05

 Potential	  Scan 4   
 0.007840	-1.077271E-05
 0.015811	-8.465576E-06
 0.023801	-5.480957E-06
 0.031778	-1.768188E-06
 0.039758	2.862549E-06
 0.047751	8.578491E-06
 0.055786	1.554565E-05
 0.063751	2.392578E-05
 0.071747	3.382568E-05
 0.079712	4.541321E-05
 0.087708	5.865479E-05
 0.095673	7.360840E-05
 0.103668	9.011841E-05
 0.111664	1.081543E-04
 0.119629	1.275024E-04
 0.127625	1.480713E-04
 0.135590	1.694946E-04
 0.143585	1.919250E-04
 0.151581	2.150269E-04
 0.159576	2.384338E-04
 0.167572	2.619324E-04
 0.175568	2.853699E-04
 0.183563	3.084106E-04
 0.191559	3.311462E-04
 0.199554	3.523560E-04
 0.207550	3.723145E-04
 0.215515	3.905334E-04
 0.223511	4.064331E-04
 0.231506	4.196472E-04
 0.239502	4.294128E-04
 0.247498	4.353027E-04
 0.255493	4.365845E-04
 0.263489	4.329224E-04
 0.271484	4.243164E-04
 0.279480	4.112549E-04
 0.287476	3.948364E-04
 0.295471	3.766174E-04
 0.303436	3.580933E-04
 0.311432	3.404541E-04
 0.319427	3.242493E-04
 0.327423	3.097534E-04
 0.335419	2.967834E-04
 0.343384	2.853394E-04
 0.351379	2.750854E-04
 0.359375	2.659302E-04
 0.367340	2.576294E-04
 0.375336	2.500916E-04
 0.383331	2.431641E-04
 0.391296	2.368469E-04
 0.399292	2.308960E-04
 0.407288	2.255249E-04
 0.415253	2.203979E-04
 0.423248	2.156372E-04
 0.431244	2.110901E-04
 0.439240	2.068176E-04
 0.447235	2.026978E-04
 0.455200	1.987610E-04
 0.463196	1.949158E-04
 0.471191	1.912231E-04
 0.479156	1.875305E-04
 0.487152	1.839905E-04
 0.495148	1.805115E-04
 0.502625	1.771240E-04
 0.494598	1.445923E-04
 0.486603	1.292419E-04
 0.478577	1.193542E-04
 0.470581	1.117859E-04
 0.462585	1.054382E-04
 0.454559	9.997559E-05
 0.446564	9.503174E-05
 0.438568	9.051514E-05
 0.430542	8.627319E-05
 0.422546	8.230591E-05
 0.414551	7.849121E-05
 0.406555	7.479858E-05
 0.398560	7.119751E-05
 0.390564	6.771851E-05
 0.382568	6.420898E-05
 0.374573	6.082153E-05
 0.366547	5.740356E-05
 0.358551	5.407715E-05
 0.350555	5.065918E-05
 0.342560	4.737549E-05
 0.334564	4.391174E-05
 0.326569	4.045410E-05
 0.318573	3.690186E-05
 0.310547	3.327637E-05
 0.302551	2.950439E-05
 0.294556	2.474060E-05
 0.286560	2.121887E-05
 0.278564	1.684265E-05
 0.270569	1.207886E-05
 0.262573	6.896973E-06
 0.254578	1.088867E-06
 0.246582	-5.200195E-06
 0.238586	-1.232910E-05
 0.230591	-2.033997E-05
 0.222595	-2.929688E-05
 0.214600	-3.943176E-05
 0.206604	-5.075073E-05
 0.198608	-6.335449E-05
 0.190643	-7.723999E-05
 0.182617	-9.246826E-05
 0.174622	-1.089783E-04
 0.166626	-1.266785E-04
 0.158661	-1.454773E-04
 0.150635	-1.652832E-04
 0.142639	-1.858521E-04
 0.134644	-2.070007E-04
 0.126678	-2.285156E-04
 0.118652	-2.501526E-04
 0.110657	-2.716675E-04
 0.102661	-2.926941E-04
 0.094696	-3.130188E-04
 0.086670	-3.322754E-04
 0.078705	-3.498230E-04
 0.070679	-3.653870E-04
 0.062683	-3.784180E-04
 0.054657	-3.881531E-04
 0.046655	-3.938904E-04
 0.038647	-3.947754E-04
 0.030630	-3.901978E-04
 0.022614	-3.799438E-04
 0.014600	-3.648376E-04
 0.006604	-3.463135E-04
 -0.001419	-3.265686E-04
 -0.009427	-3.072205E-04
 -0.017432	-2.894287E-04
 -0.025436	-2.736816E-04
 -0.033444	-2.599182E-04
 -0.041443	-2.479553E-04
 -0.049408	-2.374878E-04
 -0.057373	-2.283020E-04
 -0.065399	-2.202454E-04
 -0.073395	-2.130737E-04
 -0.081390	-2.067261E-04
 -0.089386	-2.009888E-04
 -0.097382	-1.958923E-04
 -0.105377	-1.912231E-04
 -0.113373	-1.870422E-04
 -0.121368	-1.832275E-04
 -0.129395	-1.797485E-04
 -0.137390	-1.765442E-04
 -0.145386	-1.735840E-04
 -0.153381	-1.708984E-04
 -0.161377	-1.683960E-04
 -0.169373	-1.661072E-04
 -0.177368	-1.639709E-04
 -0.185364	-1.619568E-04
 -0.193359	-1.601563E-04
 -0.201355	-1.584473E-04
 -0.209351	-1.568909E-04
 -0.217346	-1.554565E-04
 -0.225342	-1.541138E-04
 -0.233337	-1.528625E-04
 -0.241364	-1.517029E-04
 -0.249359	-1.506042E-04
 -0.257355	-1.496582E-04
 -0.265350	-1.487732E-04
 -0.273346	-1.479492E-04
 -0.281342	-1.471863E-04
 -0.289337	-1.465454E-04
 -0.297333	-1.459045E-04
 -0.293518	-1.014404E-04
 -0.285492	-5.932617E-05
 -0.277496	-4.380188E-05
 -0.269470	-3.735352E-05
 -0.261475	-3.424988E-05
 -0.253479	-3.238220E-05
 -0.245483	-3.111267E-05
 -0.237457	-3.008118E-05
 -0.229462	-2.879639E-05
 -0.221466	-2.843323E-05
 -0.213501	-2.787781E-05
 -0.205505	-2.728271E-05
 -0.197510	-2.683105E-05
 -0.189514	-2.631226E-05
 -0.181519	-2.581482E-05
 -0.173523	-2.541199E-05
 -0.165527	-2.504883E-05
 -0.157532	-2.471619E-05
 -0.149536	-2.439575E-05
 -0.141571	-2.407532E-05
 -0.133575	-2.380371E-05
 -0.125580	-2.351074E-05
 -0.117584	-2.324829E-05
 -0.109589	-2.299805E-05
 -0.101624	-2.269287E-05
 -0.093628	-2.242737E-05
 -0.085632	-2.215881E-05
 -0.077667	-2.187500E-05
 -0.069672	-2.156372E-05
 -0.061676	-2.118530E-05
 -0.053680	-2.084961E-05
 -0.045776	-2.029114E-05
 -0.037790	-1.967468E-05
 -0.029794	-1.894226E-05
 -0.021811	-1.808472E-05
 -0.013815	-1.698303E-05
 -0.005823	-1.564941E-05

 Potential	  Scan 5   
 0.002161	-1.400452E-05
 0.010147	-1.191711E-05
 0.018137	-9.365845E-06
 0.026123	-6.118774E-06
 0.034103	-2.149048E-06
 0.042084	2.815552E-06
 0.050079	8.941650E-06
 0.058105	1.632690E-05
 0.066101	2.521667E-05
 0.074066	3.564453E-05
 0.082062	4.778137E-05
 0.090027	6.155396E-05
 0.098022	7.705688E-05
 0.105988	9.408569E-05
 0.113983	1.125488E-04
 0.121948	1.323242E-04
 0.129944	1.532593E-04
 0.137909	1.751099E-04
 0.145905	1.977539E-04
 0.153900	2.209473E-04
 0.161896	2.444458E-04
 0.169891	2.679749E-04
 0.177887	2.912903E-04
 0.185883	3.141479E-04
 0.193878	3.365173E-04
 0.201874	3.573303E-04
 0.209869	3.767090E-04
 0.217865	3.941956E-04
 0.225861	4.093323E-04
 0.233826	4.214478E-04
 0.241821	4.300537E-04
 0.249817	4.344482E-04
 0.257813	4.341736E-04
 0.265808	4.288940E-04
 0.273804	4.187622E-04
 0.281799	4.044189E-04
 0.289795	3.872070E-04
 0.297791	3.687439E-04
 0.305756	3.504333E-04
 0.313782	3.331909E-04
 0.321777	3.175354E-04
 0.329742	3.034973E-04
 0.337738	2.910767E-04
 0.345703	2.799988E-04
 0.353699	2.701111E-04
 0.361694	2.612305E-04
 0.369690	2.531433E-04
 0.377655	2.458496E-04
 0.385651	2.391357E-04
 0.393646	2.329102E-04
 0.401642	2.272034E-04
 0.409607	2.218628E-04
 0.417603	2.168579E-04
 0.425598	2.121277E-04
 0.433563	2.077026E-04
 0.441559	2.034302E-04
 0.449554	1.993713E-04
 0.457550	1.954651E-04
 0.465515	1.916504E-04
 0.473511	1.879578E-04
 0.481506	1.843872E-04
 0.489471	1.808472E-04
 0.497467	1.773987E-04
 0.499878	1.651001E-04
 0.491455	1.364136E-04
 0.483459	1.236572E-04
 0.475433	1.147766E-04
 0.467438	1.077271E-04
 0.459442	1.017456E-04
 0.451447	9.634399E-05
 0.443420	9.176636E-05
 0.435425	8.740234E-05
 0.427429	8.328247E-05
 0.419434	7.931519E-05
 0.411438	7.559204E-05
 0.403412	7.192993E-05
 0.395416	6.838989E-05
 0.387421	6.488037E-05
 0.379425	6.146240E-05
 0.371399	5.804443E-05
 0.363403	5.468750E-05
 0.355408	5.130005E-05
 0.347412	4.800110E-05
 0.339417	4.461060E-05
 0.331421	4.115601E-05
 0.323425	3.767700E-05
 0.315430	3.411560E-05
 0.307404	3.044434E-05
 0.299408	2.573547E-05
 0.291412	2.239990E-05
 0.283417	1.821899E-05
 0.275421	1.367188E-05
 0.267426	8.792114E-06
 0.259430	3.437805E-06
 0.251434	-2.517090E-06
 0.243439	-9.164429E-06
 0.235443	-1.657715E-05
 0.227448	-2.492371E-05
 0.219452	-3.428650E-05
 0.211487	-4.480896E-05
 0.203491	-5.661011E-05
 0.195496	-6.967163E-05
 0.187500	-8.404541E-05
 0.179504	-9.976196E-05
 0.171509	-1.167297E-04
 0.163513	-1.347961E-04
 0.155518	-1.539612E-04
 0.147522	-1.740723E-04
 0.139526	-1.948547E-04
 0.131531	-2.162170E-04
 0.123535	-2.377625E-04
 0.115540	-2.593689E-04
 0.107544	-2.807007E-04
 0.099548	-3.015442E-04
 0.091553	-3.215027E-04
 0.083557	-3.400574E-04
 0.075562	-3.570557E-04
 0.067566	-3.717651E-04
 0.059540	-3.836365E-04
 0.051544	-3.919678E-04
 0.043515	-3.960571E-04
 0.035504	-3.949890E-04
 0.027490	-3.882751E-04
 0.019476	-3.761292E-04
 0.011459	-3.595581E-04
 0.003452	-3.403320E-04
 -0.004547	-3.205566E-04
 -0.012564	-3.017273E-04
 -0.020563	-2.846985E-04
 -0.028571	-2.696838E-04
 -0.036566	-2.565918E-04
 -0.044574	-2.451782E-04
 -0.052521	-2.352600E-04
 -0.060516	-2.265320E-04
 -0.068542	-2.188110E-04
 -0.076538	-2.119446E-04
 -0.084534	-2.060852E-04
 -0.092529	-2.003174E-04
 -0.100525	-1.953735E-04
 -0.108521	-1.909180E-04
 -0.116516	-1.868591E-04
 -0.124512	-1.831665E-04
 -0.132507	-1.798096E-04
 -0.140503	-1.766968E-04
 -0.148499	-1.738586E-04
 -0.156494	-1.712341E-04
 -0.164490	-1.687927E-04
 -0.172485	-1.665649E-04
 -0.180481	-1.644897E-04
 -0.188477	-1.625671E-04
 -0.196503	-1.607971E-04
 -0.204468	-1.592102E-04
 -0.212494	-1.575928E-04
 -0.220490	-1.561890E-04
 -0.228485	-1.548767E-04
 -0.236481	-1.536865E-04
 -0.244476	-1.525574E-04
 -0.252472	-1.515198E-04
 -0.260468	-1.505737E-04
 -0.268463	-1.497192E-04
 -0.276459	-1.489258E-04
 -0.284454	-1.482239E-04
 -0.292450	-1.475525E-04
 -0.298798	-1.469727E-04
 -0.290863	-8.227539E-05
 -0.282867	-5.319214E-05
 -0.274841	-4.209595E-05
 -0.266815	-3.722534E-05
 -0.258820	-3.471375E-05
 -0.250824	-3.311462E-05
 -0.242828	-3.193665E-05
 -0.234833	-3.098145E-05
 -0.226837	-2.971191E-05
 -0.218842	-2.940979E-05
 -0.210846	-2.886047E-05
 -0.202850	-2.832642E-05
 -0.194885	-2.782593E-05
 -0.186859	-2.733154E-05
 -0.178894	-2.691345E-05
 -0.170898	-2.649231E-05
 -0.162903	-2.612610E-05
 -0.154907	-2.577209E-05
 -0.146912	-2.545471E-05
 -0.138947	-2.515564E-05
 -0.130951	-2.489624E-05
 -0.122955	-2.462158E-05
 -0.114960	-2.441711E-05
 -0.106964	-2.413635E-05
 -0.098969	-2.380371E-05
 -0.091003	-2.350464E-05
 -0.083008	-2.322388E-05
 -0.075012	-2.293091E-05
 -0.067047	-2.257690E-05
 -0.059021	-2.222595E-05
 -0.051056	-2.178650E-05
 -0.043143	-2.126465E-05
 -0.035153	-2.062073E-05
 -0.027161	-1.983337E-05
 -0.019174	-1.887817E-05
 -0.011185	-1.772766E-05
 -0.003186	-1.619873E-05
