Date: 15-08-25
Time: 15:00:09 PM

Exp. Conditions:
Cyclic voltammetry
Start potential (V) = .0000
First vertex potential (V) = .5000
Second vertex potential (V) = -.3000
Step potential (V) = .00800
Scan rate (V/s) = .70003
Equilibration time (s) = 
Number of Data Points =  199 

 Potential	  Scan 1   
 0.003287	2.053833E-06
 0.015393	2.063904E-05
 0.023380	2.262878E-05
 0.031372	2.480774E-05
 0.039362	2.731628E-05
 0.047351	3.052368E-05
 0.055389	3.462830E-05
 0.063354	3.981323E-05
 0.071350	4.653931E-05
 0.079346	5.505371E-05
 0.087341	6.585693E-05
 0.095337	7.922363E-05
 0.103302	9.552002E-05
 0.111298	1.150818E-04
 0.119293	1.378479E-04
 0.127289	1.637573E-04
 0.135254	1.926575E-04
 0.143250	2.241211E-04
 0.151215	2.574463E-04
 0.159210	2.920227E-04
 0.167206	3.269043E-04
 0.175171	3.606873E-04
 0.183167	3.934021E-04
 0.191162	4.227600E-04
 0.199158	4.478149E-04
 0.207123	4.673157E-04
 0.215118	4.803772E-04
 0.223114	4.861450E-04
 0.231079	4.844971E-04
 0.239075	4.758911E-04
 0.247070	4.617310E-04
 0.255066	4.436340E-04
 0.263031	4.236145E-04
 0.271027	4.032288E-04
 0.279022	3.836365E-04
 0.286987	3.654785E-04
 0.294983	3.488464E-04
 0.302979	3.339539E-04
 0.310944	3.205261E-04
 0.318939	3.085327E-04
 0.326935	2.976685E-04
 0.334930	2.879639E-04
 0.342896	2.790833E-04
 0.350891	2.710266E-04
 0.358856	2.636719E-04
 0.366852	2.568359E-04
 0.374847	2.504883E-04
 0.382813	2.446594E-04
 0.390808	2.391968E-04
 0.398773	2.340088E-04
 0.406769	2.291870E-04
 0.414764	2.245483E-04
 0.422729	2.201233E-04
 0.430725	2.158203E-04
 0.438721	2.116394E-04
 0.446716	2.075806E-04
 0.454681	2.035522E-04
 0.462677	1.996155E-04
 0.470673	1.957397E-04
 0.478638	1.918945E-04
 0.486633	1.880798E-04
 0.494598	1.843567E-04
 0.496582	1.682434E-04
 0.488586	1.477966E-04
 0.480591	1.388550E-04
 0.472565	1.322021E-04
 0.464569	1.266174E-04
 0.456573	1.217041E-04
 0.448578	1.172485E-04
 0.440582	1.130676E-04
 0.432556	1.090698E-04
 0.424561	1.052246E-04
 0.416565	1.015015E-04
 0.408569	9.783936E-05
 0.400543	9.414673E-05
 0.392548	9.051514E-05
 0.384552	8.682251E-05
 0.376556	8.309937E-05
 0.368561	7.925415E-05
 0.360535	7.534790E-05
 0.352570	7.128906E-05
 0.344574	6.704712E-05
 0.336548	6.262207E-05
 0.328552	5.798340E-05
 0.320557	5.307007E-05
 0.312561	4.792480E-05
 0.304565	4.237061E-05
 0.296570	3.637695E-05
 0.288574	2.980042E-05
 0.280579	2.267456E-05
 0.272583	1.474915E-05
 0.264557	5.181885E-06
 0.256561	-4.025269E-06
 0.248566	-1.521301E-05
 0.240570	-2.774963E-05
 0.232574	-4.221802E-05
 0.224579	-5.859375E-05
 0.216583	-7.714844E-05
 0.208588	-9.796143E-05
 0.200592	-1.212158E-04
 0.192596	-1.465759E-04
 0.184570	-1.740723E-04
 0.176575	-2.031250E-04
 0.168579	-2.332153E-04
 0.160583	-2.634583E-04
 0.152588	-2.930603E-04
 0.144592	-3.208313E-04
 0.136597	-3.450623E-04
 0.128601	-3.662415E-04
 0.120605	-3.814697E-04
 0.112610	-3.902588E-04
 0.104614	-3.920288E-04
 0.096619	-3.865662E-04
 0.088623	-3.740845E-04
 0.080627	-3.562622E-04
 0.072632	-3.355408E-04
 0.064606	-3.143921E-04
 0.056610	-2.941895E-04
 0.048615	-2.757874E-04
 0.040613	-2.593384E-04
 0.032608	-2.447205E-04
 0.024609	-2.318115E-04
 0.016611	-2.203064E-04
 0.008618	-2.101440E-04
 0.000613	-2.010498E-04
 -0.007385	-1.929321E-04
 -0.015387	-1.855469E-04
 -0.023389	-1.789551E-04
 -0.031390	-1.729736E-04
 -0.039389	-1.676331E-04
 -0.047385	-1.628113E-04
 -0.055328	-1.584473E-04
 -0.063324	-1.545105E-04
 -0.071320	-1.509399E-04
 -0.079315	-1.476746E-04
 -0.087311	-1.447144E-04
 -0.095337	-1.419983E-04
 -0.103333	-1.394958E-04
 -0.111328	-1.371765E-04
 -0.119324	-1.350708E-04
 -0.127319	-1.331177E-04
 -0.135315	-1.312866E-04
 -0.143311	-1.295471E-04
 -0.151306	-1.280212E-04
 -0.159302	-1.265564E-04
 -0.167297	-1.252441E-04
 -0.175293	-1.240234E-04
 -0.183289	-1.228333E-04
 -0.191284	-1.217346E-04
 -0.199280	-1.207275E-04
 -0.207306	-1.197815E-04
 -0.215302	-1.189575E-04
 -0.223267	-1.181335E-04
 -0.231293	-1.174011E-04
 -0.239288	-1.167603E-04
 -0.247284	-1.161194E-04
 -0.255280	-1.156006E-04
 -0.263275	-1.150818E-04
 -0.271271	-1.146240E-04
 -0.279266	-1.141968E-04
 -0.287262	-1.138611E-04
 -0.295258	-1.135254E-04
 -0.295410	-6.118774E-05
 -0.287415	-2.200012E-05
 -0.279419	-1.879578E-05
 -0.271423	-1.737061E-05
 -0.263458	-1.631165E-05
 -0.255463	-1.548157E-05
 -0.247467	-1.474304E-05
 -0.239471	-1.278076E-05
 -0.231476	-1.377869E-05
 -0.223511	-1.336670E-05
 -0.215515	-1.299133E-05
 -0.207520	-1.264954E-05
 -0.199524	-1.236267E-05
 -0.191528	-1.209717E-05
 -0.183533	-1.183167E-05
 -0.175537	-1.159058E-05
 -0.167572	-1.139832E-05
 -0.159576	-1.122742E-05
 -0.151581	-1.104126E-05
 -0.143616	-1.085815E-05
 -0.135620	-1.069336E-05
 -0.127625	-1.057434E-05
 -0.119629	-1.048584E-05
 -0.111633	-1.035461E-05
 -0.103668	-1.021118E-05
 -0.095673	-1.003113E-05
 -0.087708	-9.902954E-06
 -0.079712	-9.762573E-06
 -0.071716	-9.625244E-06
 -0.063721	-9.387207E-06
 -0.055725	-9.170532E-06
 -0.047836	-8.920288E-06
 -0.039850	-8.505249E-06
 -0.031863	-8.053589E-06
 -0.023871	-7.492065E-06
 -0.015884	-6.784058E-06
 -0.007895	-6.036377E-06

 Potential	  Scan 2   
 0.000095	-5.038452E-06
 0.008093	-3.567200E-06
 0.016071	-2.286377E-06
 0.024060	-3.433228E-07
 0.032050	1.827087E-06
 0.040045	4.638672E-06
 0.048035	8.151245E-06
 0.056061	1.260071E-05
 0.064056	1.826172E-05
 0.072021	2.546997E-05
 0.080017	3.458252E-05
 0.088013	4.605103E-05
 0.095978	6.011963E-05
 0.103973	7.714844E-05
 0.111969	9.738159E-05
 0.119965	1.208801E-04
 0.127930	1.475220E-04
 0.135925	1.770325E-04
 0.143921	2.089233E-04
 0.151886	2.426453E-04
 0.159882	2.773438E-04
 0.167877	3.121948E-04
 0.175842	3.457947E-04
 0.183838	3.780518E-04
 0.191833	4.066467E-04
 0.199799	4.307556E-04
 0.207794	4.491882E-04
 0.215790	4.609985E-04
 0.223755	4.655762E-04
 0.231750	4.626160E-04
 0.239746	4.530945E-04
 0.247742	4.382019E-04
 0.255707	4.197998E-04
 0.263702	3.997803E-04
 0.271698	3.796692E-04
 0.279663	3.603210E-04
 0.287659	3.424377E-04
 0.295654	3.262024E-04
 0.303619	3.115540E-04
 0.311615	2.983093E-04
 0.319611	2.864990E-04
 0.327606	2.758789E-04
 0.335571	2.662048E-04
 0.343567	2.574463E-04
 0.351532	2.494507E-04
 0.359528	2.420959E-04
 0.367523	2.353516E-04
 0.375519	2.290955E-04
 0.383484	2.232971E-04
 0.391479	2.178650E-04
 0.399445	2.127991E-04
 0.407440	2.080383E-04
 0.415436	2.035217E-04
 0.423401	1.992188E-04
 0.431396	1.950684E-04
 0.439392	1.911011E-04
 0.447357	1.871948E-04
 0.455353	1.834412E-04
 0.463348	1.797791E-04
 0.471313	1.762085E-04
 0.479309	1.726990E-04
 0.487274	1.692810E-04
 0.495270	1.659546E-04
 0.497253	1.504822E-04
 0.489258	1.309204E-04
 0.481262	1.224670E-04
 0.473267	1.162109E-04
 0.465240	1.109619E-04
 0.457245	1.063843E-04
 0.449249	1.021729E-04
 0.441254	9.823608E-05
 0.433228	9.451294E-05
 0.425232	9.091187E-05
 0.417236	8.737183E-05
 0.409241	8.392334E-05
 0.401245	8.047485E-05
 0.393219	7.702637E-05
 0.385223	7.351685E-05
 0.377228	6.997681E-05
 0.369232	6.634521E-05
 0.361237	6.256104E-05
 0.353241	5.868530E-05
 0.345245	5.462646E-05
 0.337219	5.038452E-05
 0.329224	4.595947E-05
 0.321228	4.122620E-05
 0.313232	3.616638E-05
 0.305237	3.074646E-05
 0.297241	2.490234E-05
 0.289246	1.857605E-05
 0.281219	1.050720E-05
 0.273224	3.781128E-06
 0.265228	-4.656982E-06
 0.257233	-1.425781E-05
 0.249237	-2.504883E-05
 0.241241	-3.731995E-05
 0.233246	-5.136108E-05
 0.225250	-6.723022E-05
 0.217255	-8.526611E-05
 0.209259	-1.055908E-04
 0.201263	-1.281433E-04
 0.193268	-1.531677E-04
 0.185242	-1.800842E-04
 0.177246	-2.087097E-04
 0.169250	-2.384949E-04
 0.161255	-2.684937E-04
 0.153259	-2.979736E-04
 0.145264	-3.258667E-04
 0.137268	-3.504639E-04
 0.129272	-3.720093E-04
 0.121277	-3.878479E-04
 0.113281	-3.974915E-04
 0.105286	-4.001465E-04
 0.097290	-3.955994E-04
 0.089294	-3.841248E-04
 0.081299	-3.670044E-04
 0.073303	-3.466492E-04
 0.065308	-3.255615E-04
 0.057281	-3.053284E-04
 0.049286	-2.867126E-04
 0.041287	-2.701111E-04
 0.033289	-2.552490E-04
 0.025284	-2.421875E-04
 0.017288	-2.305908E-04
 0.009286	-2.202148E-04
 0.001288	-2.110291E-04
 -0.006714	-2.026062E-04
 -0.014709	-1.951904E-04
 -0.022711	-1.885071E-04
 -0.030710	-1.824341E-04
 -0.038708	-1.770325E-04
 -0.046713	-1.720581E-04
 -0.054657	-1.676636E-04
 -0.062653	-1.635742E-04
 -0.070648	-1.599121E-04
 -0.078644	-1.565552E-04
 -0.086639	-1.535034E-04
 -0.094635	-1.506653E-04
 -0.102631	-1.480713E-04
 -0.110626	-1.456604E-04
 -0.118652	-1.434631E-04
 -0.126648	-1.414490E-04
 -0.134644	-1.395569E-04
 -0.142639	-1.377563E-04
 -0.150635	-1.361694E-04
 -0.158630	-1.345825E-04
 -0.166626	-1.332092E-04
 -0.174622	-1.318665E-04
 -0.182617	-1.306152E-04
 -0.190613	-1.295166E-04
 -0.198639	-1.284485E-04
 -0.206604	-1.274719E-04
 -0.214600	-1.265869E-04
 -0.222595	-1.257324E-04
 -0.230591	-1.250000E-04
 -0.238586	-1.242981E-04
 -0.246582	-1.235657E-04
 -0.254608	-1.229858E-04
 -0.262604	-1.224670E-04
 -0.270599	-1.219177E-04
 -0.278595	-1.215210E-04
 -0.286591	-1.210938E-04
 -0.294586	-1.206970E-04
 -0.296478	-8.746338E-05
 -0.288483	-2.994385E-05
 -0.280487	-2.613831E-05
 -0.272491	-2.454529E-05
 -0.264496	-2.347107E-05
 -0.256531	-2.259827E-05
 -0.248505	-2.188110E-05
 -0.240509	-1.900330E-05
 -0.232544	-2.076416E-05
 -0.224548	-2.034607E-05
 -0.216553	-1.991882E-05
 -0.208557	-1.952515E-05
 -0.200592	-1.916504E-05
 -0.192596	-1.886292E-05
 -0.184601	-1.854858E-05
 -0.176605	-1.831360E-05
 -0.168610	-1.806641E-05
 -0.160645	-1.779175E-05
 -0.152649	-1.761780E-05
 -0.144653	-1.742859E-05
 -0.136688	-1.723633E-05
 -0.128693	-1.705627E-05
 -0.120697	-1.693115E-05
 -0.112701	-1.674805E-05
 -0.104706	-1.658020E-05
 -0.096741	-1.641235E-05
 -0.088745	-1.621094E-05
 -0.080750	-1.602478E-05
 -0.072784	-1.582642E-05
 -0.064789	-1.559448E-05
 -0.056793	-1.530762E-05
 -0.048898	-1.503601E-05
 -0.040909	-1.462708E-05
 -0.032916	-1.413269E-05
 -0.024930	-1.357117E-05
 -0.016940	-1.285095E-05
 -0.008951	-1.201477E-05
 -0.000961	-1.102905E-05

 Potential	  Scan 3   
 0.007047	-9.652710E-06
 0.015015	-8.233643E-06
 0.023004	-6.362915E-06
 0.030988	-4.208679E-06
 0.038980	-1.427002E-06
 0.046967	2.008972E-06
 0.054993	6.372070E-06
 0.062988	1.195068E-05
 0.070984	1.901855E-05
 0.078949	2.793579E-05
 0.086945	3.911133E-05
 0.094940	5.294800E-05
 0.102936	6.967163E-05
 0.110901	8.956909E-05
 0.118896	1.127319E-04
 0.126892	1.390076E-04
 0.134857	1.681824E-04
 0.142853	1.998901E-04
 0.150818	2.334290E-04
 0.158813	2.679749E-04
 0.166809	3.028870E-04
 0.174774	3.365173E-04
 0.182770	3.691711E-04
 0.190765	3.980408E-04
 0.198761	4.227295E-04
 0.206726	4.418030E-04
 0.214722	4.543457E-04
 0.222717	4.596252E-04
 0.230682	4.575500E-04
 0.238678	4.486694E-04
 0.246674	4.342957E-04
 0.254639	4.162598E-04
 0.262634	3.963623E-04
 0.270630	3.761902E-04
 0.278595	3.567505E-04
 0.286591	3.387451E-04
 0.294586	3.223267E-04
 0.302582	3.074341E-04
 0.310547	2.941284E-04
 0.318542	2.821655E-04
 0.326538	2.713623E-04
 0.334503	2.616272E-04
 0.342499	2.527771E-04
 0.350494	2.446899E-04
 0.358459	2.372437E-04
 0.366455	2.304077E-04
 0.374420	2.240906E-04
 0.382416	2.182312E-04
 0.390411	2.127686E-04
 0.398376	2.076721E-04
 0.406372	2.028198E-04
 0.414368	1.983032E-04
 0.422333	1.939697E-04
 0.430328	1.897888E-04
 0.438324	1.857605E-04
 0.446289	1.819153E-04
 0.454285	1.781921E-04
 0.462250	1.745300E-04
 0.470245	1.709290E-04
 0.478241	1.674805E-04
 0.486206	1.640625E-04
 0.494202	1.607361E-04
 0.502319	1.575317E-04
 0.494690	1.299438E-04
 0.486664	1.199036E-04
 0.478668	1.131592E-04
 0.470673	1.077576E-04
 0.462646	1.030273E-04
 0.454651	9.878540E-05
 0.446655	9.487915E-05
 0.438660	9.121704E-05
 0.430634	8.761597E-05
 0.422668	8.416748E-05
 0.414642	8.078003E-05
 0.406647	7.742310E-05
 0.398651	7.406616E-05
 0.390656	7.067871E-05
 0.382660	6.726074E-05
 0.374664	6.375122E-05
 0.366669	6.011963E-05
 0.358643	5.639648E-05
 0.350647	5.252075E-05
 0.342651	4.852905E-05
 0.334656	4.427185E-05
 0.326660	3.974304E-05
 0.318665	3.494873E-05
 0.310638	2.980957E-05
 0.302643	2.434998E-05
 0.294647	1.690979E-05
 0.286652	1.169434E-05
 0.278656	4.605103E-06
 0.270660	-3.237610E-06
 0.262665	-1.203613E-05
 0.254669	-2.193298E-05
 0.246674	-3.309326E-05
 0.238678	-4.579163E-05
 0.230652	-6.027222E-05
 0.222656	-7.672119E-05
 0.214661	-9.533691E-05
 0.206665	-1.163025E-04
 0.198669	-1.395569E-04
 0.190674	-1.650391E-04
 0.182678	-1.924133E-04
 0.174683	-2.213440E-04
 0.166687	-2.510986E-04
 0.158661	-2.810059E-04
 0.150665	-3.100891E-04
 0.142700	-3.364868E-04
 0.134705	-3.609619E-04
 0.126709	-3.805237E-04
 0.118683	-3.945923E-04
 0.110687	-4.021301E-04
 0.102692	-4.026489E-04
 0.094696	-3.959961E-04
 0.086700	-3.825989E-04
 0.078705	-3.642883E-04
 0.070709	-3.435364E-04
 0.062714	-3.226624E-04
 0.054718	-3.028564E-04
 0.046704	-2.848816E-04
 0.038708	-2.688293E-04
 0.030710	-2.546082E-04
 0.022708	-2.420044E-04
 0.014703	-2.307739E-04
 0.006720	-2.207031E-04
 -0.001291	-2.118835E-04
 -0.009293	-2.038574E-04
 -0.017294	-1.965637E-04
 -0.025299	-1.900940E-04
 -0.033295	-1.842346E-04
 -0.041293	-1.789856E-04
 -0.049255	-1.741943E-04
 -0.057251	-1.698608E-04
 -0.065247	-1.658936E-04
 -0.073242	-1.623230E-04
 -0.081238	-1.590576E-04
 -0.089233	-1.560364E-04
 -0.097229	-1.533203E-04
 -0.105225	-1.507568E-04
 -0.113220	-1.484375E-04
 -0.121216	-1.462402E-04
 -0.129242	-1.442261E-04
 -0.137207	-1.423950E-04
 -0.145233	-1.406860E-04
 -0.153198	-1.389771E-04
 -0.161224	-1.375427E-04
 -0.169189	-1.361084E-04
 -0.177216	-1.348267E-04
 -0.185211	-1.336060E-04
 -0.193207	-1.325073E-04
 -0.201202	-1.314392E-04
 -0.209198	-1.304626E-04
 -0.217194	-1.295776E-04
 -0.225189	-1.286926E-04
 -0.233185	-1.279297E-04
 -0.241180	-1.272278E-04
 -0.249176	-1.266174E-04
 -0.257202	-1.259766E-04
 -0.265167	-1.254578E-04
 -0.273193	-1.249695E-04
 -0.281189	-1.245422E-04
 -0.289154	-1.241150E-04
 -0.297180	-1.238403E-04
 -0.293976	-5.059814E-05
 -0.285980	-3.123474E-05
 -0.277985	-2.866516E-05
 -0.269989	-2.732239E-05
 -0.261993	-2.626953E-05
 -0.253998	-2.542725E-05
 -0.246002	-2.477417E-05
 -0.238007	-2.157898E-05
 -0.230042	-2.370300E-05
 -0.222046	-2.321472E-05
 -0.214050	-2.282715E-05
 -0.206055	-2.244263E-05
 -0.198059	-2.210693E-05
 -0.190094	-2.173767E-05
 -0.182098	-2.147522E-05
 -0.174103	-2.120972E-05
 -0.166107	-2.091675E-05
 -0.158112	-2.071838E-05
 -0.150116	-2.050171E-05
 -0.142151	-2.031250E-05
 -0.134155	-2.007446E-05
 -0.126160	-1.992493E-05
 -0.118195	-1.978760E-05
 -0.110199	-1.958313E-05
 -0.102203	-1.940308E-05
 -0.094238	-1.920166E-05
 -0.086243	-1.900330E-05
 -0.078247	-1.878357E-05
 -0.070282	-1.860962E-05
 -0.062286	-1.833801E-05
 -0.054291	-1.801758E-05
 -0.046387	-1.772766E-05
 -0.038394	-1.726990E-05
 -0.030405	-1.673889E-05
 -0.022421	-1.608582E-05
 -0.014429	-1.534729E-05
 -0.006439	-1.440735E-05

 Potential	  Scan 4   
 0.001550	-1.329041E-05
 0.009540	-1.188660E-05
 0.017529	-1.037292E-05
 0.025522	-8.413696E-06
 0.033508	-6.039429E-06
 0.041498	-3.069763E-06
 0.049500	6.356812E-07
 0.057526	5.410767E-06
 0.065491	1.140747E-05
 0.073486	1.905823E-05
 0.081482	2.867432E-05
 0.089447	4.072571E-05
 0.097443	5.545044E-05
 0.105438	7.324219E-05
 0.113434	9.423828E-05
 0.121399	1.184082E-04
 0.129395	1.456909E-04
 0.137390	1.756897E-04
 0.145386	2.080688E-04
 0.153351	2.420959E-04
 0.161346	2.768250E-04
 0.169342	3.115540E-04
 0.177307	3.446655E-04
 0.185303	3.763733E-04
 0.193298	4.039612E-04
 0.201263	4.269409E-04
 0.209259	4.439697E-04
 0.217255	4.541931E-04
 0.225220	4.570313E-04
 0.233215	4.526062E-04
 0.241211	4.417725E-04
 0.249176	4.259949E-04
 0.257172	4.071655E-04
 0.265167	3.869934E-04
 0.273163	3.670044E-04
 0.281128	3.480225E-04
 0.289124	3.305054E-04
 0.297089	3.146057E-04
 0.305084	3.002319E-04
 0.313080	2.873230E-04
 0.321075	2.757568E-04
 0.329041	2.653503E-04
 0.337036	2.558594E-04
 0.345032	2.472534E-04
 0.352997	2.393799E-04
 0.360992	2.321167E-04
 0.368958	2.254639E-04
 0.376953	2.192993E-04
 0.384949	2.135620E-04
 0.392944	2.081909E-04
 0.400909	2.031555E-04
 0.408905	1.984253E-04
 0.416870	1.939392E-04
 0.424866	1.896362E-04
 0.432861	1.855469E-04
 0.440857	1.816101E-04
 0.448822	1.777344E-04
 0.456818	1.740417E-04
 0.464813	1.704102E-04
 0.472778	1.668701E-04
 0.480774	1.634521E-04
 0.488770	1.600952E-04
 0.496735	1.568298E-04
 0.498718	1.416626E-04
 0.490723	1.226807E-04
 0.482697	1.145020E-04
 0.474701	1.083984E-04
 0.466705	1.033325E-04
 0.458710	9.887695E-05
 0.450714	9.478760E-05
 0.442688	9.097290E-05
 0.434692	8.734131E-05
 0.426697	8.389282E-05
 0.418701	8.047485E-05
 0.410675	7.708740E-05
 0.402679	7.376099E-05
 0.394684	7.040405E-05
 0.386688	6.698608E-05
 0.378693	6.353760E-05
 0.370667	5.999756E-05
 0.362671	5.633545E-05
 0.354675	5.255127E-05
 0.346680	4.869080E-05
 0.338684	4.453735E-05
 0.330688	4.015808E-05
 0.322693	3.551941E-05
 0.314697	3.057861E-05
 0.306671	2.526855E-05
 0.298676	1.809998E-05
 0.290680	1.316223E-05
 0.282684	6.433105E-06
 0.274689	-9.790039E-07
 0.266693	-9.289551E-06
 0.258698	-1.856995E-05
 0.250702	-2.906189E-05
 0.242706	-4.093933E-05
 0.234680	-5.450439E-05
 0.226685	-6.988525E-05
 0.218689	-8.737183E-05
 0.210693	-1.070251E-04
 0.202728	-1.290588E-04
 0.194702	-1.533813E-04
 0.186707	-1.798096E-04
 0.178711	-2.080078E-04
 0.170715	-2.374573E-04
 0.162720	-2.672729E-04
 0.154724	-2.969360E-04
 0.146729	-3.250732E-04
 0.138733	-3.502197E-04
 0.130737	-3.726501E-04
 0.122742	-3.896179E-04
 0.114746	-4.005127E-04
 0.106750	-4.047241E-04
 0.098755	-4.017639E-04
 0.090759	-3.917236E-04
 0.082733	-3.756714E-04
 0.074738	-3.559570E-04
 0.066772	-3.348999E-04
 0.058746	-3.144836E-04
 0.050751	-2.955627E-04
 0.042743	-2.785339E-04
 0.034744	-2.633667E-04
 0.026743	-2.500305E-04
 0.018741	-2.380676E-04
 0.010745	-2.274780E-04
 0.002744	-2.182007E-04
 -0.005249	-2.094727E-04
 -0.013254	-2.019043E-04
 -0.021255	-1.950073E-04
 -0.029254	-1.888733E-04
 -0.037253	-1.833191E-04
 -0.045251	-1.782837E-04
 -0.053223	-1.737366E-04
 -0.061188	-1.696472E-04
 -0.069214	-1.658630E-04
 -0.077209	-1.624451E-04
 -0.085205	-1.592712E-04
 -0.093201	-1.564026E-04
 -0.101196	-1.537170E-04
 -0.109192	-1.513062E-04
 -0.117188	-1.490784E-04
 -0.125183	-1.469727E-04
 -0.133179	-1.450195E-04
 -0.141174	-1.432495E-04
 -0.149170	-1.415710E-04
 -0.157166	-1.399536E-04
 -0.165161	-1.385193E-04
 -0.173157	-1.372070E-04
 -0.181152	-1.359253E-04
 -0.189148	-1.347351E-04
 -0.197174	-1.336365E-04
 -0.205139	-1.325989E-04
 -0.213165	-1.316833E-04
 -0.221161	-1.307678E-04
 -0.229156	-1.300049E-04
 -0.237152	-1.292725E-04
 -0.245148	-1.285400E-04
 -0.253143	-1.279602E-04
 -0.261139	-1.274414E-04
 -0.269135	-1.268005E-04
 -0.277130	-1.263428E-04
 -0.285126	-1.259766E-04
 -0.293121	-1.255493E-04
 -0.296356	-1.093445E-04
 -0.288361	-3.558960E-05
 -0.280365	-3.122864E-05
 -0.272369	-2.959595E-05
 -0.264374	-2.843628E-05
 -0.256409	-2.755127E-05
 -0.248413	-2.677307E-05
 -0.240417	-2.340698E-05
 -0.232422	-2.550659E-05
 -0.224426	-2.514648E-05
 -0.216461	-2.474365E-05
 -0.208466	-2.433777E-05
 -0.200470	-2.393494E-05
 -0.192474	-2.362976E-05
 -0.184479	-2.333374E-05
 -0.176514	-2.306519E-05
 -0.168518	-2.271423E-05
 -0.160522	-2.249146E-05
 -0.152527	-2.230225E-05
 -0.144562	-2.207642E-05
 -0.136566	-2.187500E-05
 -0.128571	-2.169495E-05
 -0.120575	-2.150269E-05
 -0.112579	-2.130127E-05
 -0.104614	-2.113647E-05
 -0.096619	-2.093201E-05
 -0.088623	-2.071838E-05
 -0.080658	-2.055054E-05
 -0.072662	-2.031555E-05
 -0.064667	-2.007141E-05
 -0.056671	-1.977234E-05
 -0.048779	-1.943665E-05
 -0.040790	-1.901550E-05
 -0.032800	-1.849060E-05
 -0.024811	-1.790771E-05
 -0.016821	-1.718445E-05
 -0.008838	-1.629333E-05
 -0.000836	-1.529236E-05

 Potential	  Scan 5   
 0.007159	-1.390686E-05
 0.015128	-1.246033E-05
 0.023120	-1.061096E-05
 0.031116	-8.306885E-06
 0.039105	-5.511475E-06
 0.047083	-2.109985E-06
 0.055115	2.343750E-06
 0.063110	7.974243E-06
 0.071106	1.515198E-05
 0.079071	2.412415E-05
 0.087067	3.540344E-05
 0.095062	4.934692E-05
 0.103058	6.622314E-05
 0.111023	8.624268E-05
 0.119019	1.094971E-04
 0.127014	1.359253E-04
 0.134979	1.652222E-04
 0.142975	1.969604E-04
 0.150940	2.305603E-04
 0.158936	2.651672E-04
 0.166931	3.000488E-04
 0.174896	3.337097E-04
 0.182892	3.661194E-04
 0.190887	3.948669E-04
 0.198883	4.192505E-04
 0.206848	4.380798E-04
 0.214844	4.503479E-04
 0.222839	4.553833E-04
 0.230804	4.530029E-04
 0.238800	4.439087E-04
 0.246796	4.293823E-04
 0.254791	4.112549E-04
 0.262756	3.913574E-04
 0.270752	3.711548E-04
 0.278748	3.518372E-04
 0.286713	3.338318E-04
 0.294708	3.174744E-04
 0.302673	3.026733E-04
 0.310669	2.893677E-04
 0.318665	2.774048E-04
 0.326660	2.666016E-04
 0.334625	2.568970E-04
 0.342621	2.480469E-04
 0.350616	2.399292E-04
 0.358582	2.325134E-04
 0.366577	2.256775E-04
 0.374542	2.193298E-04
 0.382538	2.134399E-04
 0.390533	2.079773E-04
 0.398499	2.028809E-04
 0.406494	1.980286E-04
 0.414490	1.934814E-04
 0.422455	1.891479E-04
 0.430450	1.849670E-04
 0.438446	1.809387E-04
 0.446411	1.771240E-04
 0.454407	1.733398E-04
 0.462402	1.697083E-04
 0.470367	1.661682E-04
 0.478363	1.626892E-04
 0.486359	1.593018E-04
 0.494324	1.560364E-04
 0.502319	1.528320E-04
 0.494873	1.256409E-04
 0.486847	1.156921E-04
 0.478851	1.090393E-04
 0.470856	1.036682E-04
 0.462860	9.906006E-05
 0.454865	9.487915E-05
 0.446869	9.100342E-05
 0.438843	8.734131E-05
 0.430847	8.386230E-05
 0.422852	8.044434E-05
 0.414825	7.711792E-05
 0.406830	7.376099E-05
 0.398834	7.043457E-05
 0.390839	6.710815E-05
 0.382843	6.372070E-05
 0.374847	6.027222E-05
 0.366852	5.670166E-05
 0.358856	5.300903E-05
 0.350861	4.922485E-05
 0.342834	4.518738E-05
 0.334839	4.094543E-05
 0.326843	3.646240E-05
 0.318848	3.170471E-05
 0.310852	2.661133E-05
 0.302856	1.961060E-05
 0.294861	1.504517E-05
 0.286835	8.648682E-06
 0.278839	1.559143E-06
 0.270844	-6.216431E-06
 0.262848	-1.498718E-05
 0.254852	-2.479248E-05
 0.246857	-3.590088E-05
 0.238861	-4.849243E-05
 0.230865	-6.292725E-05
 0.222870	-7.916260E-05
 0.214844	-9.771729E-05
 0.206879	-1.184692E-04
 0.198883	-1.415710E-04
 0.190887	-1.669312E-04
 0.182861	-1.941223E-04
 0.174866	-2.229309E-04
 0.166870	-2.526245E-04
 0.158875	-2.825012E-04
 0.150879	-3.114929E-04
 0.142883	-3.381042E-04
 0.134888	-3.625488E-04
 0.126892	-3.823242E-04
 0.118896	-3.966064E-04
 0.110901	-4.043579E-04
 0.102905	-4.052429E-04
 0.094910	-3.989258E-04
 0.086914	-3.858337E-04
 0.078918	-3.677368E-04
 0.070923	-3.471069E-04
 0.062927	-3.262634E-04
 0.054901	-3.064575E-04
 0.046909	-2.884216E-04
 0.038907	-2.723083E-04
 0.030905	-2.580261E-04
 0.022906	-2.453613E-04
 0.014908	-2.341614E-04
 0.006927	-2.240295E-04
 -0.001093	-2.150879E-04
 -0.009085	-2.070923E-04
 -0.017087	-1.997986E-04
 -0.025085	-1.932373E-04
 -0.033087	-1.873779E-04
 -0.041089	-1.820374E-04
 -0.049042	-1.773071E-04
 -0.057037	-1.729126E-04
 -0.065033	-1.689453E-04
 -0.073029	-1.653748E-04
 -0.081024	-1.620483E-04
 -0.089020	-1.590271E-04
 -0.097015	-1.562805E-04
 -0.105011	-1.537476E-04
 -0.113007	-1.513977E-04
 -0.121033	-1.492310E-04
 -0.129028	-1.471863E-04
 -0.136993	-1.452942E-04
 -0.145020	-1.435852E-04
 -0.153015	-1.419373E-04
 -0.161011	-1.404419E-04
 -0.169006	-1.390381E-04
 -0.177002	-1.376953E-04
 -0.184998	-1.364746E-04
 -0.192993	-1.353455E-04
 -0.200989	-1.342773E-04
 -0.208984	-1.333923E-04
 -0.216980	-1.324158E-04
 -0.225006	-1.315308E-04
 -0.232971	-1.307678E-04
 -0.240967	-1.300354E-04
 -0.248962	-1.293640E-04
 -0.256989	-1.287537E-04
 -0.264954	-1.282349E-04
 -0.272980	-1.277161E-04
 -0.280945	-1.273804E-04
 -0.288940	-1.268616E-04
 -0.296936	-1.265564E-04
 -0.293457	-5.221558E-05
 -0.285461	-3.392944E-05
 -0.277466	-3.151855E-05
 -0.269470	-3.005676E-05
 -0.261475	-2.907410E-05
 -0.253479	-2.821655E-05
 -0.245483	-2.761536E-05
 -0.237488	-2.408752E-05
 -0.229523	-2.642822E-05
 -0.221527	-2.602234E-05
 -0.213531	-2.553406E-05
 -0.205536	-2.513733E-05
 -0.197540	-2.481079E-05
 -0.189575	-2.451477E-05
 -0.181549	-2.425232E-05
 -0.173584	-2.388916E-05
 -0.165588	-2.365723E-05
 -0.157593	-2.345276E-05
 -0.149597	-2.316284E-05
 -0.141632	-2.297974E-05
 -0.133636	-2.283020E-05
 -0.125641	-2.257385E-05
 -0.117676	-2.240295E-05
 -0.109680	-2.219238E-05
 -0.101685	-2.207031E-05
 -0.093719	-2.185974E-05
 -0.085724	-2.167053E-05
 -0.077728	-2.141724E-05
 -0.069763	-2.118225E-05
 -0.061768	-2.088623E-05
 -0.053772	-2.059937E-05
 -0.045865	-2.037659E-05
 -0.037878	-1.982422E-05
 -0.029889	-1.925964E-05
 -0.021899	-1.860962E-05
 -0.013910	-1.784668E-05
 -0.005914	-1.689758E-05
